participant,condition,trial,common,reward.1.1,reward.1.2,reward.2.1,reward.2.2,isymbol_lft,isymbol_rgt,rt1,choice1,final_state,fsymbol_lft,fsymbol_rgt,rt2,choice2,reward
1,story,0,1,0.7470411901076409,0.5870568941481651,0.4449230921247802,0.4856660855846114,2,1,1.5758974756136013,2,2,2,1,1.5041446291297689,2,0
1,story,1,1,0.7424893014407529,0.607044786471219,0.4142803490039269,0.4854865664125301,1,2,1.286925199592588,2,2,1,2,1.5000007533772075,1,0
1,story,2,1,0.7384721291589545,0.6057557011058692,0.416242299354018,0.5127700958512015,1,2,0.960473313723014,1,1,2,1,1.4274167812054657,2,1
1,story,3,1,0.7141902141395298,0.5936332747210524,0.4675237804732149,0.5428724363058689,1,2,0.7251719282030535,1,1,2,1,0.6890667796533307,2,0
1,story,4,1,0.7115266833046592,0.5302426022197961,0.450061787042765,0.5292156088069511,2,1,0.8211006478741183,1,1,1,2,1.2298607969951263,1,1
1,story,6,1,0.7070450326060107,0.5290130722029075,0.456000303431453,0.5540866558583043,2,1,0.9312232946622316,1,1,1,2,0.7319896901844913,1,1
1,story,7,1,0.6643376174099735,0.4955316180445966,0.4286166135204594,0.5612982247902327,1,2,0.9009309029579526,1,1,1,2,0.6963398827920173,1,1
1,story,8,1,0.6488494439289691,0.476302272696909,0.4474783916894303,0.565248136011553,2,1,0.9331772536752396,1,1,1,2,0.70790603036221,1,1
1,story,9,1,0.6943345661376451,0.502194982541854,0.463013072934761,0.5070141759069049,2,1,1.1281054583378136,1,1,1,2,0.6347549158617767,1,0
1,story,10,1,0.6942564038114907,0.4747580094752637,0.4665383196034874,0.5000437789059675,2,1,0.7699870208189168,1,1,2,1,0.766702597735275,2,0
1,story,11,1,0.7240129544548015,0.4981027733331826,0.4849719669973028,0.5198473356015421,1,2,0.9861502155708876,2,2,1,2,1.01574045975849,2,1
1,story,12,1,0.7364656385729401,0.4776349234576702,0.5237859491407566,0.5232120905118705,1,2,0.8438830746590611,2,2,1,2,0.8146704231057811,2,1
1,story,13,0,0.7165269798899839,0.4852006276526192,0.5524390390280958,0.5414747066461728,2,1,1.4203736087756624,2,1,2,1,1.435968516067078,2,1
1,story,14,1,0.7062284552334448,0.4761579330171326,0.5702351871516352,0.5325775282829235,2,1,0.828479525167495,1,1,1,2,0.8939293169496523,2,1
1,story,15,1,0.6735154167444302,0.4737749020961095,0.5649231306008744,0.5170952361148546,1,2,0.6827498628099421,1,1,1,2,0.5840469070699328,2,0
1,story,16,1,0.6660260925651653,0.4536355285279738,0.6060534020787974,0.5065821746146248,2,1,0.6932233121415265,2,2,2,1,0.6119284918504491,2,1
1,story,17,1,0.6268414212096354,0.4439629376723562,0.6125586345517579,0.4785896565882646,1,2,1.2651058901737997,2,2,2,1,0.7390220139823214,2,0
1,story,18,1,0.6518204525957612,0.4508472186280575,0.5722891760796254,0.4731431499247234,2,1,0.9460533734572892,2,2,2,1,0.8407872972175028,1,0
1,story,19,1,0.7016092012609297,0.4865688683728054,0.5791569830154605,0.5074915874346823,2,1,1.1956427075647298,2,2,2,1,0.6409021721665339,2,0
1,story,20,1,0.7209219763193385,0.4640798181542409,0.5572641919377053,0.5095012142497891,1,2,1.1062680678678591,1,1,2,1,0.9139968737854358,1,0
1,story,21,0,0.6971553168458566,0.4361210007493046,0.5992315637189776,0.4965996087492148,2,1,0.7061494561667132,1,2,2,1,1.384444449131479,2,1
1,story,22,0,0.6861510364058034,0.382162655950709,0.6351137206367979,0.488189154347586,1,2,0.7063483477377304,2,1,2,1,1.1244940695660262,2,0
1,story,23,1,0.7199866859309415,0.3860100365452093,0.6707360992538819,0.488032006334854,2,1,1.029175886746998,2,2,2,1,0.7818322192888445,2,0
1,story,24,1,0.7469080016567801,0.3944009921438196,0.5923134308052296,0.5194044545192951,2,1,0.7194968887024515,1,1,1,2,1.3647520741224068,1,1
1,story,25,0,0.7407947688617733,0.4152827420589151,0.6107014218249605,0.5615770303567791,2,1,0.7858953330096483,1,2,2,1,1.2492042077019505,1,1
1,story,26,1,0.7412388914042242,0.447736144778224,0.6368638101699615,0.5983460783748671,2,1,0.6231773169592998,2,2,2,1,0.5896146656614292,1,0
1,story,27,1,0.743788155641767,0.4835174719675128,0.6406226659877297,0.6187325147126569,2,1,0.5592565794695474,1,1,2,1,1.011047221379158,1,1
1,story,28,1,0.7112782145767522,0.465828198918214,0.6056914365221915,0.6023363339429184,1,2,0.6623845713174887,1,1,2,1,0.6361363082287426,1,1
1,story,29,1,0.7169154795475909,0.4465573461088761,0.6093675829272592,0.5985885120664887,1,2,0.9718679926509141,1,1,2,1,0.6812123706940838,1,0
1,story,30,1,0.7036705466342736,0.4963432774858311,0.6137874241729196,0.6156217388459841,1,2,0.6372033916441069,1,1,2,1,0.658039393188119,2,0
1,story,31,0,0.7287846167169891,0.4406529061904427,0.6028887238863918,0.5904557907290497,1,2,0.7982950170726326,2,1,1,2,1.8427246819319407,1,1
1,story,32,1,0.6928057111125934,0.42553726019326543,0.6517392970958189,0.595000047967849,1,2,0.8456143353814696,1,1,1,2,0.8374751498549813,1,1
1,story,33,0,0.6555688797628769,0.42836857584683496,0.6298662702551889,0.6266498597473341,2,1,0.8967406191732152,1,2,2,1,1.228126522763887,2,1
1,story,34,1,0.6699715384052072,0.4126868191476376,0.6651374551352005,0.6479973827703102,2,1,0.748880104845739,2,2,1,2,0.8037437420725837,2,0
1,story,35,0,0.6675860374688596,0.4118565404173462,0.6629582030098837,0.6522998704874579,1,2,1.1049906415491932,1,2,1,2,1.14156680150154,1,1
1,story,36,1,0.6671108418264962,0.40257465706785545,0.6834314743927051,0.6224790509579656,2,1,0.7242928877276427,2,2,1,2,0.5669452454512793,1,1
1,story,37,1,0.7039270509302679,0.3855778047714007,0.6867258108410985,0.6572161014631329,2,1,0.6075167151784626,2,2,1,2,0.6031245263138771,1,1
1,story,38,0,0.6786729738784592,0.36425577820646493,0.6941330933786375,0.6186203036252436,1,2,0.9691859699469204,2,1,1,2,0.7139945232493119,1,1
1,story,39,1,0.7184509121286629,0.3836212617973775,0.6887952601299141,0.6278077341906165,1,2,0.7339321978633961,1,1,1,2,0.542342358087808,1,1
1,story,40,1,0.7155479211600568,0.3879145029168182,0.727833929716728,0.651266594827543,2,1,0.7372952735222498,1,1,2,1,1.2088825578421163,1,1
1,story,41,1,0.7078808287564455,0.38008472549403627,0.7366376861518873,0.6555165678466418,1,2,0.6271620794532282,1,1,1,2,1.0470851686850438,1,0
1,story,42,1,0.6982541856547644,0.3721169295457376,0.7457424743014999,0.6843318173838744,1,2,0.7695377066784204,2,2,1,2,0.5772514450527524,1,1
1,story,43,1,0.7226701125808257,0.3754422931305598,0.7310033824267483,0.6994583902032624,2,1,1.2458073807456458,2,2,2,1,0.7622688224500962,1,1
1,story,44,1,0.7499797184212593,0.4012284067132921,0.7215541249621955,0.6817650743675023,2,1,0.6073434384315988,2,2,1,2,0.7325824473373359,1,1
1,story,45,1,0.7275802535285896,0.4060503823115569,0.7496049586251855,0.6825540705821161,2,1,0.5888007169742195,2,2,2,1,0.7630547455073611,1,0
1,story,46,1,0.7489951062479151,0.4410965587526328,0.7157244277191851,0.6300369142336488,2,1,0.5959379108726353,2,2,1,2,0.8669807144488004,2,1
1,story,47,0,0.7225865879426712,0.4661796033727804,0.6924858912690126,0.6262260200771443,2,1,0.6815342134186722,2,1,1,2,1.2198116496820148,2,1
1,story,48,1,0.6623779428809713,0.44888569372209375,0.6566895820838201,0.6024925969717221,1,2,0.7465099802884652,1,1,2,1,0.6302358582815941,2,1
1,story,49,1,0.6315218697918119,0.4270618187974795,0.6609291247642202,0.6550037937989585,1,2,0.6008053300529355,1,1,2,1,0.673966389132147,2,1
1,story,50,1,0.5692123633767596,0.4381933914598126,0.6401282679389619,0.6100756807022985,1,2,1.2821939910036235,1,1,1,2,0.8753661036325866,2,1
1,story,51,0,0.5894691939934805,0.40565854956779024,0.6071755954934477,0.6067372731018335,1,2,0.7270623021822757,1,2,1,2,1.15570528005901,1,1
1,story,52,1,0.5801499156866801,0.4046938304210974,0.5646995471161389,0.5905484154080183,1,2,0.6497350673871551,2,2,2,1,0.6905548502272723,1,0
1,story,53,1,0.5422528976421477,0.4195696912812865,0.5918637363178391,0.5665756708381311,2,1,0.9694198182187392,1,1,2,1,0.6669307504753306,2,1
1,story,54,0,0.5514094377549589,0.4359267973705835,0.6061981458579554,0.5524762247560262,1,2,0.7724939586678374,1,2,1,2,1.0441454909923775,1,1
1,story,55,1,0.5411417844351434,0.41176185648555697,0.5907677769989199,0.5442157237998675,1,2,0.7498712478427478,2,2,1,2,0.5629008154855911,1,0
1,story,56,1,0.5280243498386228,0.4320147699261054,0.5969660437148182,0.5323570059277438,2,1,0.8075067103300171,1,1,2,1,0.7837693026531269,2,1
1,story,57,1,0.5421446034890415,0.4400244580520496,0.5626662224392174,0.4974764621700789,1,2,0.6328693634959563,1,1,2,1,0.6620862339614177,2,1
1,story,58,0,0.5864802334156358,0.4804906610738915,0.5907855743105374,0.4986712483258986,2,1,0.7818243841675212,1,2,2,1,1.1361213913605752,2,0
1,story,59,1,0.6093255362070077,0.4402120745508475,0.5590705235579301,0.5053865217159895,1,2,0.6441645966369833,1,1,2,1,0.5121771364492815,2,0
1,story,60,0,0.5671731242965499,0.4618172458417771,0.5627650538470521,0.5131526974130438,2,1,0.7003472466030871,1,2,1,2,1.0070718007609685,2,1
1,story,61,1,0.5639469676479489,0.4461157781169478,0.5717956141575378,0.5178489452145034,1,2,0.7716245614210493,2,2,1,2,0.6148998113840207,2,1
1,story,62,0,0.521544872840181,0.4266919582484796,0.5813179815542806,0.4807176867240735,1,2,0.7823635008653582,2,1,2,1,1.1998444426826609,1,1
1,story,63,0,0.4758289289628386,0.4377332747971037,0.5788375208722218,0.4470601489421005,2,1,0.7441727029754475,1,2,1,2,0.8523760461021084,2,0
1,story,64,0,0.4895190004303365,0.4441079461459897,0.5936519525249513,0.4516613195330104,1,2,0.8887099199582735,1,2,1,2,1.006184021111039,1,1
1,story,65,0,0.4764516860207704,0.43676981715651453,0.5565391259044221,0.4165588350811151,2,1,0.6803399599384647,2,1,2,1,1.200920566624518,1,1
1,story,66,1,0.5158432621570066,0.4595544305295891,0.5953247024505521,0.4365878014520295,2,1,0.7246966978882483,1,1,1,2,0.811865750600191,1,0
1,story,67,0,0.5274474753523636,0.3934686182141378,0.5935552628151299,0.3874663505950091,1,2,0.7981563956745958,2,1,1,2,1.2072525510102423,2,0
1,story,68,1,0.5875620529671679,0.4502656777843529,0.5834674478882786,0.4581458803577682,2,1,0.7252424443049676,2,2,1,2,1.157880430606383,1,1
1,story,69,0,0.5552919556338907,0.4320419327510479,0.5917022528276068,0.4298577499174199,2,1,0.6355131146392523,2,1,1,2,1.3761120977005703,2,0
1,story,70,1,0.5584959594178182,0.42821028156592694,0.5767550692080308,0.4346052579543153,2,1,0.6256411616350306,2,2,2,1,0.8779381332697085,1,0
1,story,71,1,0.5715921769291744,0.4443047795051605,0.5793827708758718,0.4115623327924833,2,1,0.6246054187104164,2,2,2,1,0.6418921097601924,2,0
1,story,72,1,0.5670549334655768,0.4605453564169225,0.5166096288752855,0.4131234249210339,2,1,0.5763814451038343,1,1,2,1,1.417266078650755,1,0
1,story,73,0,0.5980206567778817,0.4690747568981127,0.5542617445529311,0.3981960934299205,1,2,0.6988896124657913,2,1,1,2,1.7460208878337653,2,0
1,story,74,1,0.6014778925220071,0.4703045560899762,0.5333833051346457,0.39659514178660427,1,2,1.145693198902336,2,2,2,1,0.8381712703530866,1,0
1,story,75,1,0.6187020709063424,0.5231920625287984,0.4977044930666192,0.4327025082546838,2,1,0.7429796548995,1,1,2,1,1.011073137553467,1,1
1,story,76,1,0.6757873815638845,0.5310025390276506,0.5145227954471239,0.4940725958065399,1,2,0.9505944296497546,1,1,1,2,0.8256866053461636,1,0
1,story,77,1,0.655889977307792,0.5208783197784022,0.5242515670886849,0.4786736645938188,1,2,0.6506153132650071,2,2,1,2,1.050126100270063,2,1
1,story,78,1,0.6049011969574807,0.5609212913556058,0.5357835043460283,0.4918580815101685,1,2,0.7058691998627182,2,2,1,2,1.1841684720093326,2,1
1,story,79,0,0.5505684914760639,0.5199154090401992,0.5405515123672741,0.4992663242036819,2,1,0.6971134504638029,2,1,2,1,1.0901608641061102,2,0
1,story,80,1,0.5671420597562854,0.5551417826005115,0.5549859101492132,0.5415972664488372,1,2,0.9714476081935572,2,2,1,2,0.6342013343210056,2,1
1,story,81,1,0.579984866859371,0.5964794157090841,0.6125223696095408,0.4897807434916164,1,2,1.0966573860641802,2,2,1,2,0.5730066167607221,2,0
1,story,82,1,0.5715681556430607,0.5581464841022741,0.5868425261755714,0.4936769039268435,1,2,0.8686010780520519,1,1,2,1,0.8986701687654204,1,1
1,story,83,0,0.6021377579452729,0.5532733405409633,0.6012358407524627,0.4996448313435852,2,1,0.5900980324504417,1,2,1,2,1.296359892489818,1,1
1,story,84,1,0.6527667404503018,0.5781258660834704,0.5645223676035995,0.5101033489662572,1,2,1.0789225862772582,2,2,1,2,1.0058591648785296,1,1
1,story,85,1,0.6375459713874887,0.5651123295405656,0.5750931965233363,0.5261064710486302,2,1,0.8724851893584855,2,2,1,2,1.0259228041541064,1,1
1,story,86,1,0.6705989190478263,0.5961370506517688,0.5700840739131432,0.5710186174357987,2,1,0.7123681326274891,2,2,2,1,1.2286520786738038,1,1
1,story,87,1,0.6961118528757196,0.6476498800036322,0.5435262653781694,0.6026915344552457,1,2,0.8370041384514479,2,2,1,2,0.76184964339609,1,1
1,story,88,0,0.6571367767542271,0.6625077796219719,0.5030101765193749,0.596283995981832,2,1,0.6470361690353457,2,1,2,1,1.1897995142826403,1,1
1,story,89,0,0.6428124039453955,0.6688935527374598,0.4641562330256421,0.5827809844429557,1,2,0.6265117642860787,1,2,1,2,1.164332051286692,1,1
1,story,90,1,0.6692290239355055,0.6748238943303737,0.4473385696864223,0.5981225299427395,2,1,0.5858526014562813,2,2,1,2,0.5521865868122404,1,0
1,story,91,1,0.6471530216750551,0.6777810475049063,0.42860059331742417,0.5447882067270147,2,1,0.6242670016881675,1,1,2,1,0.8865477274985096,1,1
1,story,92,1,0.6071559714525929,0.7126036039378703,0.4132937220276261,0.5719773645105548,2,1,0.7761113744581962,1,1,2,1,0.6984650090962532,1,1
1,story,93,0,0.6438229120819485,0.7314348679465698,0.4135363753195642,0.5782971797557208,2,1,0.5823391517151322,1,2,2,1,1.5766737554431531,2,0
1,story,94,1,0.6720803084196659,0.7312213415661794,0.4206676469224848,0.5716785926299743,2,1,0.8930496737730209,1,1,1,2,0.9851096510328716,1,0
1,story,95,1,0.6946755376963228,0.7272276819958319,0.4179955972197118,0.5437295972693059,2,1,0.6546268959873487,1,1,2,1,1.1869535567084313,2,1
1,story,96,1,0.6742312959000981,0.7111709793746491,0.4504701628708537,0.6130060104081017,1,2,0.8638716775694775,1,1,1,2,0.5479712909054797,2,1
1,story,97,1,0.6906137419592824,0.7422185413374508,0.4350510368715257,0.5936689332493938,2,1,0.4930591361899133,1,1,2,1,0.6091069436961334,2,1
1,story,98,1,0.6965577039075602,0.6981356299387937,0.4050309572935018,0.6111143127294182,2,1,0.6888181651893319,1,1,2,1,0.8399670201606568,2,1
1,story,99,1,0.6993699496927889,0.7038831181562134,0.3557253939708014,0.5756209705901734,2,1,0.6873373270354932,1,1,1,2,0.8349450079867893,2,0
1,story,100,0,0.7231470341673354,0.7174972917238767,0.3300123399653199,0.6088490826120587,2,1,0.9156832332291742,2,1,2,1,0.8750014690858734,2,1
1,story,101,1,0.6863879867496254,0.7083472748435728,0.3587410894861953,0.6162635675290217,1,2,0.7161256765712096,1,1,2,1,0.5329061584361625,2,1
1,story,102,1,0.6771177464379394,0.7222292012655415,0.3439786082089093,0.6376776641493302,2,1,0.6589289809435286,1,1,1,2,0.5482361783160741,2,0
1,story,103,0,0.6314256521732411,0.7445853840458786,0.3460974289039713,0.608389387291133,2,1,0.6587804149667136,1,2,1,2,1.1164724108757582,2,1
1,story,104,1,0.618572830713807,0.7351088911995398,0.3900058078975536,0.5792960325617531,2,1,0.7100371836831982,2,2,1,2,0.925889685693619,2,1
1,story,105,1,0.6186271386775558,0.7427532904230275,0.3853179738551837,0.572001435416027,2,1,0.7722296739593729,2,2,2,1,0.5829279913068603,2,0
1,story,106,1,0.6040136839312498,0.7420608562604669,0.3795762258381799,0.5904159231144589,2,1,0.5198914172560762,1,1,1,2,0.7518176730836785,1,1
1,story,107,0,0.6537324792919592,0.7455701601397982,0.3652251357045184,0.5859480110522597,2,1,0.5254709285309218,1,2,1,2,1.2369997989990225,1,0
1,story,108,1,0.6004361867376278,0.7057159643276563,0.3801027815704367,0.5804238476543027,2,1,0.8041632224776549,1,1,2,1,0.9480284270293852,1,0
1,story,109,1,0.611687471628896,0.6675021615050579,0.3795157000440483,0.5442538890780884,2,1,0.5251168412651168,1,1,2,1,0.6132652842898096,2,1
1,story,110,1,0.6251715962609697,0.6620629722386457,0.3636581779488179,0.5392427669136362,1,2,0.8396313152970833,1,1,1,2,0.9871669733920498,2,1
1,story,111,1,0.6484175246276566,0.6843231957747756,0.3647029157483488,0.5553603784671817,2,1,0.7323067112947683,1,1,2,1,0.5069260976179066,2,1
1,story,112,1,0.6581417396146647,0.7246524151010111,0.3775610353549469,0.5616344166435638,1,2,0.7398880963701231,1,1,1,2,0.6100739786243139,2,0
1,story,113,0,0.6585168383611857,0.7262031934409217,0.3779797031312439,0.5445358211581182,2,1,0.6265648020380468,1,2,2,1,0.8617402228965148,2,0
1,story,114,1,0.6572181561475094,0.698316094421636,0.35435982657985177,0.5519152822448183,2,1,0.6565269131942841,1,1,1,2,0.6182146709052176,1,1
1,story,115,0,0.6851490888248614,0.7007459767506258,0.3778467019343984,0.5729608734055234,1,2,0.7684410908777863,1,2,2,1,1.356491444196763,1,0
1,story,116,0,0.7046906808166502,0.6766021111284668,0.42371008564237417,0.6153560934998659,1,2,1.1678717185523055,1,2,1,2,1.094875498397414,1,1
1,story,117,1,0.7266426460211827,0.6907466075782762,0.432197404815299,0.5844681739959348,1,2,0.8391675363145623,2,2,2,1,0.6752269398029966,1,0
1,story,118,0,0.7259076658736285,0.6572726386623575,0.4416970628869361,0.5846260427897578,2,1,0.691494763576884,1,2,2,1,1.0772998118663963,2,1
1,story,119,1,0.7417328422398165,0.6823811493088159,0.4676442108933206,0.6089437382870214,1,2,0.9736676600196006,2,2,2,1,0.5939541181251116,2,0
1,story,120,1,0.7173957755439777,0.6902790130664652,0.4691195043006306,0.6224417478189812,2,1,0.5245442746199842,1,1,2,1,0.6132857761494961,1,0
1,story,121,1,0.7247197226690613,0.6851279297340339,0.4666196154704138,0.6060430627550759,2,1,0.5648357893924185,1,1,1,2,0.6002870065640309,2,1
1,story,122,0,0.7495691380758807,0.6612067574993064,0.4719577142650013,0.6405243200988643,2,1,0.6141166004854313,1,2,1,2,1.4568644864330054,1,1
1,story,123,1,0.7349349150851129,0.6559217078932855,0.4488118061825244,0.6721066531506834,2,1,0.6843036278723957,2,2,1,2,0.5524746782402872,1,0
1,story,124,1,0.7206546629528372,0.7028781623307541,0.4079382261782254,0.6602734930664567,1,2,1.1319329156804088,1,1,2,1,0.4997593713342212,2,1
1,story,125,0,0.7286165321754321,0.6938513290710939,0.3990689804636265,0.6652757927365442,2,1,0.5017654640460023,1,2,2,1,1.2038087133196314,2,1
1,story,126,0,0.6988443909081183,0.6827810620763202,0.3969348879566472,0.6459604012106306,1,2,0.6734233548731936,2,1,2,1,1.1498762502669706,2,1
1,story,127,0,0.7076948261378991,0.6702530719771156,0.3777484974661136,0.6732183881620141,2,1,0.8227041358295537,1,2,2,1,0.9212428553482824,2,1
1,story,128,1,0.7469662639161428,0.6314979674973205,0.3874010854798389,0.6862112164319534,2,1,0.6919091210165789,2,2,2,1,0.5490871931606307,2,1
1,story,129,1,0.7480822073401961,0.5856110166505568,0.3950765696346617,0.6807415358430762,1,2,1.155268924006123,1,1,1,2,0.7166864905302646,2,1
1,story,130,1,0.7469828083108179,0.6194589314638871,0.3852725336755269,0.6877238202010371,2,1,0.9721355922192744,1,1,1,2,1.4760195528497206,2,1
1,story,131,1,0.6882244630191523,0.6421591418992856,0.414627826372378,0.6875886993019531,1,2,0.7253063306889089,1,1,2,1,0.8401616928204021,2,0
1,story,132,0,0.6956347980065154,0.6473900746543301,0.40196155422135815,0.6844776855099926,1,2,0.5881407585784473,2,1,2,1,1.1480877328795032,1,1
1,story,133,1,0.7401499863797387,0.6598361701434081,0.4270619471422826,0.6850386334846534,2,1,0.5787545831708485,1,1,1,2,0.7438794885838433,1,1
1,story,134,1,0.7364464284370715,0.6381347666103623,0.4447692323565921,0.7166488927774015,1,2,0.7179060574844698,1,1,1,2,1.1900526490098855,1,1
1,story,135,0,0.7423708153295252,0.6367261305262872,0.4596269814703667,0.7460780277972275,1,2,1.1563272682451498,1,2,2,1,1.0799947926570894,2,1
1,story,136,0,0.7464867679278469,0.6009318745491488,0.4735245951428053,0.7329064043760245,1,2,0.6157140614232048,2,1,2,1,0.9509219980409398,1,1
1,story,137,1,0.7422449101302399,0.5541268237591526,0.4837229908994593,0.706703065182229,2,1,1.0313890075040035,1,1,2,1,1.033642810627498,1,1
1,story,138,1,0.7100133587708624,0.5715276440936303,0.4114279619289072,0.7015865931663212,2,1,0.7439298141780455,1,1,2,1,0.7004840598947341,1,1
1,story,139,1,0.7164842862450091,0.5778801703756045,0.44763629483742734,0.7014640683010136,2,1,0.7585396054892044,1,1,2,1,0.6170948510889502,1,1
1,story,140,1,0.7273732769481353,0.655017802150989,0.47858622626865094,0.7139511824883821,1,2,0.9739346568867404,1,1,1,2,0.7347148060616746,1,1
1,story,141,1,0.7013335918640586,0.6078683673123004,0.4560994686362303,0.7261816715174295,2,1,0.9738403340652441,1,1,1,2,1.092538522434552,1,1
1,story,142,1,0.7284467538110534,0.6191936174639187,0.4525720686243342,0.7274328995600337,1,2,0.9264721969166204,1,1,2,1,0.6384729828405398,1,1
1,story,143,1,0.7265109783240544,0.6315519660929819,0.4544643973209054,0.7366442462731624,1,2,0.6699837360938545,1,1,2,1,0.5651865618010561,1,1
1,story,144,0,0.7303198697901321,0.6835837531898762,0.4715342381253978,0.718793818925521,2,1,0.8442471065036443,1,2,1,2,0.9807319270094011,2,1
1,story,145,0,0.7240545431166467,0.6806858909111769,0.4493779255989177,0.6782050222909146,1,2,0.6967183794795346,2,1,1,2,0.6989583204631344,1,1
1,story,146,1,0.7394821746647976,0.693647403830172,0.4853239875882285,0.7215660568242369,2,1,0.7279000575881582,2,2,1,2,1.1686145484354709,2,0
1,story,147,1,0.7383806950274696,0.6811769257066929,0.4328809231250461,0.7238018073354253,2,1,0.5767050959339031,1,1,1,2,0.5968296080836808,1,1
1,story,148,1,0.7483868172749449,0.6851440604908495,0.4623417278183201,0.7299101796857923,2,1,0.7053126048131162,1,1,1,2,0.6600466913032506,1,1
1,story,149,0,0.7383260623650284,0.6706518433285931,0.4203348669948843,0.7237189278652665,1,2,0.7309759458721601,1,2,2,1,1.1778015309228067,1,1
2,story,0,0,0.4133824512001532,0.5661648042117051,0.38083934629693617,0.4297508302957293,2,1,0.6637654623082199,1,2,2,1,0.8462716279450433,2,0
2,story,1,1,0.43351516515100974,0.5583165984016429,0.3935223111965756,0.4237625579040718,2,1,0.68908133819059,1,1,2,1,0.7905536778052921,1,1
2,story,2,1,0.417931898467748,0.5784897974674028,0.3842815805602609,0.4772556812594999,1,2,0.7801377896280428,1,1,1,2,0.9637351464202766,1,1
2,story,3,0,0.40489288476203905,0.5563482316478778,0.40305492527444176,0.4216265996758408,1,2,0.5950641153908691,1,2,1,2,0.948125176290432,2,1
2,story,4,1,0.37630688271854895,0.5591304787688526,0.3839730364035288,0.4540271489117658,1,2,0.8562743642100941,1,1,1,2,0.9164426625907254,1,0
2,story,5,1,0.3944872297011296,0.5718780529526558,0.3752387769109222,0.4791837083124904,2,1,0.8190265044036096,1,1,1,2,0.624950277122025,1,1
2,story,6,1,0.4106694035927832,0.6045597002433309,0.3852418850576231,0.5010484050018065,2,1,0.7859216150473003,1,1,1,2,0.7087619545854977,1,0
2,story,7,1,0.4086239264614973,0.5996404516070823,0.4065989105540836,0.5176484967379302,1,2,0.5982382431011501,1,1,2,1,0.8195110764486344,2,0
2,story,8,0,0.36731345496690215,0.5935211172809622,0.3912073418082458,0.4831465604955898,2,1,0.5241192119556217,1,2,2,1,0.6457642737809692,2,1
2,story,9,0,0.3657158927348527,0.5663273966273921,0.3872243936800246,0.485041984377368,1,2,0.8031383875081701,2,1,2,1,1.0140574109386762,1,0
2,story,10,1,0.3477170666849592,0.5841987535833467,0.4138235844503562,0.5284464618610194,1,2,0.6376630609042877,2,2,1,2,0.7606048351130994,2,0
2,story,11,1,0.29637881479266337,0.5857112471924688,0.4461459517394845,0.5264751558191969,2,1,0.8091093517582522,2,2,1,2,0.892676935093732,2,1
2,story,12,1,0.32214816059512524,0.5632352093843762,0.44067221686775904,0.5105511478849092,2,1,0.7822376018261821,2,2,2,1,0.6212951935754063,2,0
2,story,13,0,0.3262426059205339,0.577992720995406,0.46290502284165597,0.4535201523707686,2,1,0.7056257970725709,2,1,2,1,0.9945627279716972,1,0
2,story,14,1,0.3380756616282025,0.5715202356678457,0.4821711404731002,0.4635062460153058,2,1,0.5232944148851857,2,2,2,1,0.7459010267625672,2,0
2,story,15,1,0.3005629685264395,0.5855952659246436,0.4996644837135511,0.4507852057486992,2,1,0.6354981569384108,2,2,1,2,0.7319367332129332,2,1
2,story,16,1,0.34336774914708,0.5684819002024333,0.5150510516866917,0.4546089339543288,2,1,0.6208088134253558,2,2,2,1,0.6799941055787713,2,0
2,story,17,1,0.3031352738535109,0.5649216465260678,0.5091948951256844,0.4616829408353715,2,1,0.5907611276784337,2,2,2,1,0.7550066417711605,2,0
2,story,18,1,0.2991890094116512,0.5317490175791888,0.5397124529275453,0.4679166570950906,2,1,0.4912572113244096,2,2,2,1,0.7894715271731911,2,0
2,story,19,0,0.3218043134149192,0.574258106546959,0.5195266960180303,0.4997354320758962,1,2,0.8052846077257527,2,1,2,1,0.7692090024324898,1,0
2,story,20,1,0.3412160739097303,0.6029796939826534,0.5369024679210542,0.4889396342793784,1,2,0.6438314099113995,2,2,1,2,0.8686351702872344,2,1
2,story,21,1,0.3446269417619113,0.611092345528939,0.532640495311655,0.4760531637665992,2,1,0.9998993488411544,2,2,1,2,1.0944912475679305,2,0
2,story,22,1,0.3209883038205479,0.6053741042175096,0.5423150715026377,0.5026951260436145,2,1,0.8086133283832169,2,2,1,2,0.7131261165045544,2,0
2,story,23,0,0.2939663300574322,0.603189538704997,0.5696624683707395,0.5256478433173413,1,2,0.8799177432924807,2,1,1,2,0.9977127476199712,1,0
2,story,24,1,0.3378009253070628,0.6138254175580249,0.5346423878917501,0.4869636481796811,2,1,0.8855442636067892,2,2,2,1,0.8118787653779691,2,0
2,story,25,1,0.3739178993486237,0.6208467090044419,0.520061878051661,0.4537641121089204,2,1,0.5740753352829415,1,1,2,1,0.6216131186429266,2,0
2,story,26,1,0.3487001304166397,0.6287140464364366,0.5233012797631471,0.4773183472475032,2,1,0.6843853890677565,1,1,1,2,0.8258623453766631,2,0
2,story,27,1,0.35777764912335563,0.5933941062710117,0.5366926008395881,0.40953488057732595,2,1,0.5805010378521729,1,1,2,1,0.9515060306316628,2,1
2,story,28,1,0.37913725367604784,0.5877114950173001,0.5284783482929927,0.4246333198741649,2,1,0.6483887376775783,1,1,1,2,0.7763645765780893,2,1
2,story,29,0,0.3902714186671711,0.5701230819530321,0.5184331041592465,0.43457379922052586,2,1,0.4948188761300116,1,2,2,1,1.3722887470798923,1,0
2,story,30,1,0.3992936397009131,0.5906849619112963,0.5366407904704205,0.4050972620333999,1,2,0.6101217095506399,1,1,1,2,0.7494069416757156,2,1
2,story,31,1,0.3701149301782141,0.6022891918279828,0.5191053347656758,0.3764088489666271,2,1,0.6241266854549394,1,1,2,1,0.6375000301350155,2,0
2,story,32,0,0.35906250286933306,0.5924108648371602,0.5300562085848644,0.3884443386400866,2,1,0.5283887497321302,1,2,2,1,0.8639286738880401,1,1
2,story,33,1,0.3299296285534872,0.6153887802265541,0.5557019180749856,0.39502394431107596,1,2,0.7362927586614205,2,2,1,2,1.1149143922721123,1,1
2,story,34,0,0.34371569372617505,0.6511332519555564,0.548195933793211,0.4173442470111205,2,1,0.9209014486532396,2,1,2,1,1.259760751592694,2,1
2,story,35,1,0.3085139972834305,0.688157036774598,0.5627014998366283,0.3892617045466791,1,2,0.736371411213895,2,2,2,1,1.073055262910657,1,1
2,story,36,0,0.31085061091531685,0.6672826178597842,0.6202508958515055,0.3525357820477699,1,2,0.7520214609967297,2,1,1,2,0.904985607487106,2,1
2,story,37,1,0.3157834828298204,0.7000035299988587,0.613539033259364,0.3752152756510421,1,2,0.5838327720175585,2,2,2,1,0.580017671209589,1,1
2,story,38,0,0.3410453212542984,0.6983149238617283,0.6163519265548963,0.3212070297271099,2,1,1.022749874035526,2,1,1,2,0.7445919589968071,2,1
2,story,39,1,0.3778266982729354,0.7084734598615778,0.5952219513589854,0.3177607074781381,1,2,0.7558588617616806,2,2,2,1,0.9329717525833984,1,1
2,story,40,0,0.3883003928316881,0.7412493684237431,0.5384137806701528,0.2805961748529815,1,2,0.6447255176603903,2,1,2,1,1.1588519379265565,2,0
2,story,41,1,0.34965710379087644,0.7326358151812546,0.4947200265735394,0.2649901715789757,2,1,0.7877270075382512,1,1,2,1,0.6537684517079471,1,0
2,story,42,0,0.32637053943780225,0.7161366533861986,0.4736164642745993,0.2941006777004045,1,2,0.6928819741610823,2,1,1,2,1.9363580312392517,2,0
2,story,43,0,0.33006216845274583,0.7362309922427029,0.4728201938787149,0.2712659962649071,1,2,0.7369581411721811,2,1,2,1,1.2255942034576035,2,1
2,story,44,1,0.3650188037982167,0.7469977098390518,0.49685254503871,0.2547824052138943,1,2,0.5783539135823048,2,2,1,2,0.8999955400086037,1,1
2,story,45,0,0.3685186932562869,0.6983183183918595,0.5271150288145082,0.2767692265886879,2,1,1.1985298903805417,2,1,1,2,1.096736612190398,2,1
2,story,46,1,0.3885241149317646,0.6815184435128634,0.5252480245875863,0.2936408998912353,1,2,0.9954378506213288,2,2,2,1,1.0620622879996515,1,1
2,story,47,0,0.4318065663049856,0.6644624562692383,0.5382837560399211,0.2688441154464194,1,2,0.7843609193851079,2,1,1,2,0.6748494451530861,2,0
2,story,48,1,0.4021344473150283,0.6397267241642166,0.5748694651712141,0.2673018318959184,1,2,0.7515323686893679,2,2,2,1,0.8368996188514757,1,1
2,story,49,1,0.4073808613650072,0.6853312862604264,0.5682811617896166,0.26750942403234146,2,1,0.9191689830499854,2,2,2,1,0.9357251946121324,1,1
2,story,50,1,0.35970967086159034,0.6488227006803744,0.5857781746751417,0.2631455756218708,2,1,0.6682646293747894,2,2,2,1,0.6263512568739316,1,0
2,story,51,0,0.319733227175238,0.6640163191137191,0.5570091710678264,0.2657970803949037,2,1,0.6233064086463855,2,1,2,1,1.1298261326573993,2,0
2,story,52,1,0.3405238258909409,0.6391256841100743,0.5931310724119365,0.2568920148399745,2,1,0.6086939095803245,2,2,2,1,0.5925746566408634,1,1
2,story,53,0,0.3216159556545084,0.6446713036218572,0.6332237765484581,0.274022348588427,2,1,0.5666382995141248,2,1,2,1,0.772119448214653,2,1
2,story,54,1,0.36409546084353706,0.6258506300063607,0.6322192919105749,0.2502143461670052,1,2,0.7098187917526957,2,2,1,2,0.7039511908178611,1,0
2,story,55,1,0.3266725917398485,0.6054339815766512,0.679466277554054,0.2754048966595622,1,2,0.6875477640978715,2,2,1,2,0.6322806347170626,1,1
2,story,56,0,0.3092474803771901,0.5785279918454322,0.6406969670331635,0.2548611310105051,2,1,0.5381871701720229,2,1,2,1,0.6563323440987006,2,1
2,story,57,1,0.26537294470705985,0.5397425591297567,0.6219273249132353,0.25114736658059833,2,1,0.5706360188905819,2,2,1,2,0.7721748967569511,1,1
2,story,58,0,0.27663930951259186,0.5119608534668512,0.6155175556119712,0.28229059292132874,1,2,0.8190921988725677,2,1,1,2,0.6168544885595111,2,1
2,story,59,0,0.27077027118986097,0.529221582040245,0.666533426061518,0.28910024322780004,2,1,0.8114987620510874,2,1,1,2,0.8551150677794794,2,0
2,story,60,1,0.3262540957291984,0.5188156460476163,0.6716414984185012,0.2942306653875633,1,2,0.7868374200515973,2,2,2,1,0.77179700288616,1,0
2,story,61,1,0.3412819293990371,0.499363053061364,0.6868593963266967,0.3315459074348369,2,1,0.7078750792552455,2,2,1,2,0.6862823921946983,1,1
2,story,62,0,0.3620638727575461,0.4927820257752276,0.7244883763923382,0.312545836132315,1,2,0.7707624656759435,2,1,1,2,0.6908608145149628,2,1
2,story,63,1,0.34726068461689263,0.5033636533572033,0.6905512015203357,0.2732598573392804,2,1,0.5867597920923799,2,2,1,2,0.6569082254291061,1,1
2,story,64,1,0.3749873839376694,0.4795027148752911,0.7021824741629189,0.2570685416835716,2,1,0.6461054028577564,2,2,1,2,0.6444262763407096,1,0
2,story,65,1,0.3662453294456065,0.4432749302565979,0.6953467487849745,0.2714531085429153,1,2,0.7186839288433475,2,2,1,2,0.5308098018558667,1,1
2,story,66,1,0.3773039188924708,0.4629624459130226,0.6837754482466878,0.27542449908829464,2,1,0.5872509938544681,2,2,2,1,0.6251099930323107,2,1
2,story,67,1,0.3891383394484437,0.4571931730636938,0.6492933655734299,0.3030942719240521,1,2,0.8004726385552203,2,2,2,1,0.5867200137890904,2,1
2,story,68,1,0.40112313430961377,0.4817407032237701,0.7014370356916285,0.27015520381496616,1,2,0.6758888039748854,2,2,2,1,0.9220348289172762,2,0
2,story,69,0,0.391853920433114,0.4642367280193402,0.6697457214102402,0.2775129831386103,2,1,0.6684945600163701,2,1,2,1,0.981082705117842,2,1
2,story,70,1,0.39227610773763577,0.4594707224905818,0.6422164203439051,0.27510566409209125,1,2,0.7441113045115344,2,2,2,1,0.8828284904257089,2,0
2,story,71,1,0.3604407117676731,0.5115638776263752,0.6387228357368706,0.2512439484429927,1,2,0.7164768357688445,2,2,1,2,1.097111191203112,2,0
2,story,72,1,0.3889924056178397,0.5021574246408429,0.6342878690606157,0.2518426667419571,2,1,0.6086773352872115,1,1,1,2,0.8379136642088271,2,0
2,story,73,0,0.3894540742516931,0.4912726943514394,0.6555686417400374,0.2717778858161451,1,2,0.7982140144986261,1,2,2,1,1.2422242459597328,1,1
2,story,74,0,0.3695219031085464,0.4890301806753787,0.6564255249996663,0.2921338267991275,2,1,0.7834966453629022,1,2,2,1,1.1495489381604784,1,0
2,story,75,0,0.38120518049420943,0.5037198751863511,0.6198550593045378,0.2765996575671017,1,2,0.8417453393094547,1,2,2,1,1.0311358633935015,1,0
2,story,76,1,0.4279155284247872,0.493315245929256,0.6298105800871945,0.2552598257194747,2,1,0.5979299612590694,1,1,2,1,0.8241786985981889,1,1
2,story,77,1,0.4376280082818424,0.5122958396182357,0.6618362431428017,0.2604054570170216,2,1,0.5993701166098617,1,1,2,1,0.8821570808986507,1,0
2,story,78,0,0.4378033713304733,0.5210062421795528,0.6635580961882427,0.26259108149544885,2,1,0.5166411924810745,1,2,2,1,0.8941309525816905,2,0
2,story,79,1,0.4456397083463319,0.5534055336840364,0.6923465730059352,0.27073901930339417,2,1,0.5831188720321734,1,1,1,2,0.909784618574122,1,1
2,story,80,1,0.4626969053797217,0.5708804982591746,0.6657306181186966,0.26823317016210035,2,1,0.6148547248185423,1,1,2,1,0.7746574244392832,1,0
2,story,81,1,0.4535485480381794,0.5867014082642704,0.6978685988330171,0.2567466460620538,2,1,0.4954456857412879,1,1,1,2,0.6859343320502376,1,1
2,story,82,1,0.4493286201252564,0.5934425324224236,0.702265740936192,0.2828516176383096,1,2,0.7556551486386525,1,1,2,1,1.7260130810345802,1,1
2,story,83,1,0.4138176914928575,0.5923080138088483,0.7054443406392841,0.26510093019801473,1,2,0.5334484292388879,1,1,1,2,0.604238137025277,1,0
2,story,84,1,0.4371023163409915,0.5919802490175432,0.7378812374983966,0.25599128743132193,1,2,0.4764232194393117,1,1,1,2,0.6347616556458888,1,0
2,story,85,1,0.4687227423001827,0.5870466404476109,0.7130052289058342,0.27151448842656073,1,2,0.5521656272076143,1,1,2,1,0.5126603487469765,1,1
2,story,86,0,0.4538891947344312,0.5999455662292938,0.685011741976794,0.2566272576797417,1,2,0.7239855930220074,1,2,2,1,1.341136912094953,1,1
2,story,87,1,0.4205779967826846,0.5483032442288138,0.7277978502574156,0.2779738963346112,1,2,0.4645855583066805,1,1,2,1,0.7289834956209233,1,0
2,story,88,1,0.4630533052724274,0.5253134770981926,0.681686354250606,0.2790032543666179,1,2,0.716315914455663,1,1,1,2,0.5392744437667716,1,0
2,story,89,1,0.4576348133934098,0.5362204648421632,0.67401507072928,0.26444214172239633,2,1,0.6365326941486273,1,1,1,2,0.7072115048495107,1,0
2,story,90,1,0.4499481134412522,0.5222521553149502,0.6352821381130163,0.2594503949397744,1,2,0.5877075402777336,2,2,2,1,0.7529794551101077,1,0
2,story,91,0,0.4621509228613102,0.5128923870304425,0.6403818748331905,0.26336501984801075,2,1,0.7183135687409958,2,1,2,1,1.0928157372609348,1,1
2,story,92,1,0.461504451040943,0.5106373412226846,0.6630558743461912,0.28481265964311203,1,2,0.7860331148340265,2,2,2,1,0.5924824433041067,1,1
2,story,93,0,0.5075436000719981,0.463177434884453,0.6864929177222232,0.3302488035103056,1,2,0.6895231184262229,2,1,1,2,0.8270713646843433,1,1
2,story,94,1,0.502536862938233,0.4500851912134136,0.6380296452877663,0.2939444270070286,2,1,0.7172922909649059,2,2,2,1,0.7017456044977735,1,1
2,story,95,1,0.5064772280174866,0.4855623581232954,0.633212115806022,0.3367485150906288,2,1,0.7769431700662608,2,2,2,1,1.0360719890832115,1,1
2,story,97,0,0.5068407538875315,0.3969546603722693,0.6758747568476363,0.3198397178745611,1,2,0.5940838213209645,2,1,2,1,1.0321933032628294,1,0
2,story,98,1,0.4913478615090925,0.4096641794800694,0.6588839234666748,0.32031329081208576,2,1,0.6708839703078411,2,2,2,1,0.6021347086179958,1,0
2,story,99,1,0.5032804237588137,0.3578544321562984,0.6563457103842578,0.3376507076509965,1,2,0.5703846923452147,2,2,1,2,0.899587209708443,1,1
2,story,100,1,0.4915077971405424,0.3723262164128476,0.662276873579915,0.3195062789091692,2,1,0.6502598246379421,2,2,1,2,0.6444796154282812,1,0
2,story,101,0,0.5137279905099179,0.3798529944966993,0.6568518186928249,0.3657629477882504,2,1,0.5684334460793252,1,2,2,1,0.9825322023434636,1,1
2,story,102,1,0.5428413891430943,0.3877955547616088,0.6347526318536847,0.3591497424993297,1,2,0.7034512498830736,2,2,1,2,0.5231298773624076,1,1
2,story,103,1,0.5398485752211641,0.4076067514181344,0.6297168565970441,0.3342362278354982,1,2,0.6786904621276335,2,2,2,1,0.7151460707473234,1,1
2,story,104,0,0.5599176749069351,0.4244181590778312,0.5858022947216492,0.3070275396497573,2,1,0.8212980865428108,2,1,2,1,1.1053576551539663,2,1
2,story,105,1,0.5509903061034027,0.4042923427920546,0.575128273962263,0.3096706778815225,1,2,0.5787827357344213,2,2,1,2,0.7770402050155099,1,1
2,story,106,1,0.5728562048257395,0.39912439379814657,0.5862681399621091,0.29062524455953304,2,1,0.5774275613011923,2,2,1,2,0.7097998066537912,1,1
2,story,107,0,0.5614021802551785,0.3984918807375495,0.6056057948724123,0.2994750818589157,2,1,0.7034768646981321,2,1,2,1,0.7673960761721901,2,1
2,story,108,0,0.5657642297419817,0.38489283055233736,0.6144327227366971,0.2746937391845754,1,2,0.6757968919882842,2,1,1,2,0.910790226109384,2,0
2,story,109,1,0.5759208518449771,0.3843576616747777,0.6310648485912765,0.2542275010434993,2,1,0.6608737002743511,2,2,1,2,0.5270902292431856,1,1
2,story,110,0,0.6067362204019088,0.4052765178032842,0.6410393530503151,0.26475856435570844,1,2,0.7421968230391941,2,1,1,2,0.6952596317742064,2,0
2,story,111,0,0.6157937875457593,0.4127545778545284,0.6461646220790661,0.28799679469764594,2,1,0.6899043271560004,2,1,1,2,0.8963648658746024,2,1
2,story,112,1,0.581443900735227,0.4049273287946187,0.6578948278328656,0.294581622612032,2,1,0.5929772612762463,2,2,1,2,0.5495646686704276,1,1
2,story,113,0,0.5983437963828138,0.37307984208022615,0.6367276018063817,0.3184468788167325,1,2,0.733377491266765,2,1,2,1,0.7306553897187769,2,1
2,story,114,1,0.5987843214345577,0.3759567918292513,0.6151137010341374,0.32786368207693994,2,1,0.5439279024303687,2,2,1,2,0.5841612443618942,1,0
2,story,115,1,0.5480441255352706,0.3846125528202581,0.5890077074324562,0.3217671614658029,2,1,0.6994996371731759,1,1,1,2,0.5295468407593944,2,0
2,story,116,1,0.5105094883383781,0.3905977807978576,0.6176371428936862,0.32062369955137604,2,1,0.5869836957172083,2,2,1,2,0.7243978408814655,2,0
2,story,117,0,0.5388421561907494,0.3924826039788868,0.6141678683630469,0.31180975920222803,1,2,0.569596057367562,2,1,2,1,0.7186537937650428,2,1
2,story,118,1,0.5629212716588574,0.40806026531410017,0.5807001146698729,0.2763457808466128,1,2,1.0188886665591779,2,2,1,2,0.9900961067887692,1,1
2,story,119,0,0.5772861845387571,0.4237525155016327,0.5740846212291482,0.2579227918855471,2,1,0.6700019165909907,2,1,2,1,0.7243050248434884,2,1
2,story,120,1,0.511358845410641,0.42278467801578795,0.5718175604489413,0.2731163528868369,1,2,0.5668706409605875,2,2,2,1,0.8143160904437536,1,0
2,story,121,1,0.5621352890130445,0.42135893391211066,0.5789605617201081,0.3120180245197105,1,2,0.4834657870433148,2,2,2,1,0.8662493762039958,1,1
2,story,122,0,0.5447309810636005,0.4142081962510247,0.5610276735296802,0.3067379695990806,2,1,0.583054684317176,2,1,2,1,0.6892965026436286,2,1
2,story,123,1,0.4981598730399992,0.389101493098756,0.5662576817712581,0.3031793420653197,1,2,0.8276846135113374,2,2,1,2,0.6571758249174309,1,1
2,story,124,1,0.4958426736107873,0.3763279355592832,0.5571753595364033,0.3037735541177435,2,1,0.5737239602794943,2,2,2,1,0.8147199004815775,2,0
2,story,125,0,0.4833676507912785,0.36324468953546063,0.5493153659564491,0.3041647767723812,2,1,0.4675213175542012,2,1,1,2,0.93036838324133,2,0
2,story,126,1,0.5177959073962196,0.3896161077393777,0.559145700054741,0.30570264150269044,2,1,0.6020527412074443,2,2,1,2,0.7678586496112985,1,0
2,story,127,1,0.524157321836177,0.3973318105309303,0.5717197811167158,0.31997918149413257,1,2,0.5686862793791079,2,2,1,2,0.8050179122901682,1,1
2,story,128,1,0.4653408939209265,0.406040166319137,0.5551251071891874,0.31073551450361103,2,1,0.6934551433341767,2,2,1,2,0.6981248749398219,1,1
2,story,129,1,0.4776170147153162,0.41118006551873537,0.5437721547240133,0.2949013639772353,1,2,0.7425261994367247,2,2,2,1,0.6909153590049755,1,0
2,story,131,1,0.5055783957780462,0.3835488607541056,0.5573084982704215,0.25060048067217466,2,1,0.6037930419306576,2,2,2,1,0.8699011448916281,1,0
2,story,132,1,0.494916712585926,0.4052685949907796,0.5677229407271386,0.250195019008155,1,2,0.7086302642965165,2,2,2,1,0.6019677602889715,1,1
2,story,133,1,0.5402833035555531,0.4071738207865845,0.5580814902150417,0.2654054501098697,2,1,1.6976734514782947,2,2,1,2,0.5075135788665648,1,0
2,story,134,0,0.5086242129824936,0.3940472565741216,0.5693351222086228,0.2712822936402077,1,2,0.6234387016356777,2,1,1,2,0.6409598383788762,2,1
2,story,135,1,0.5386100332538858,0.39616288584174736,0.5177853571074391,0.2891870955578663,1,2,0.5288507204695634,2,2,1,2,0.7139982256467192,1,0
2,story,136,1,0.5439187232800846,0.4592799444624772,0.5016758816470146,0.3179791512743359,1,2,0.597805503388372,2,2,2,1,0.6942862687710658,1,0
2,story,137,1,0.5866634950022649,0.4811720298320094,0.490659376945449,0.3362415879392774,1,2,0.5443817366967778,2,2,2,1,0.777033876648602,1,1
2,story,138,0,0.5571763942327035,0.4743277428706798,0.4823910768795932,0.3262810285510147,2,1,0.5230991395837918,1,2,1,2,0.7197012890574115,1,1
2,story,139,1,0.5498967150459553,0.4639521640891813,0.4883921816827799,0.3291941252534775,2,1,0.7478360000868634,2,2,1,2,0.5839177529351218,1,1
2,story,140,0,0.5479963542096071,0.4733434492030675,0.4933810191630971,0.3367682067831625,1,2,0.6305367177837979,2,1,2,1,0.6723036338089514,2,1
2,story,141,1,0.5466516683722416,0.4757539392012173,0.4875604438582864,0.3422772555919647,2,1,0.6099535558187199,2,2,1,2,0.6753939860027458,1,0
2,story,142,1,0.5378849421531746,0.4913038025403826,0.5012681252152926,0.32071469546392106,2,1,0.7393496609201975,2,2,2,1,0.7218689051805995,2,0
2,story,143,0,0.5275514953949411,0.4683736875364852,0.4966778228916042,0.3471929904285648,2,1,0.5853907555228943,2,1,2,1,1.4674366379867934,2,1
2,story,144,0,0.5464476624186534,0.4896641513337998,0.5016116050504745,0.3198460318482845,2,1,0.8917828273451959,1,2,1,2,0.7258485435113471,1,1
2,story,145,1,0.5712515540454297,0.5240511098163738,0.4626957901468192,0.3653539587951761,2,1,0.7182725850352654,1,1,2,1,0.5633987786850412,2,1
2,story,146,1,0.6017755172727214,0.5390076268897934,0.41685116231736186,0.38141825074632657,1,2,0.5185776725593314,1,1,2,1,0.7327545992156956,2,0
2,story,147,0,0.6002597818462347,0.5493723079486114,0.4022634624130483,0.3816845041140789,2,1,0.5983729468980528,2,1,1,2,1.0265821518369194,2,0
2,story,148,1,0.625946644802252,0.5733670201664205,0.4501890696292705,0.3449985401638882,2,1,0.5101290022403191,2,2,2,1,0.7786569519212208,1,0
2,story,149,0,0.5939159910257152,0.5615933211644792,0.4646800436767771,0.3444851567408957,2,1,0.6003811484597463,2,1,2,1,0.7229833003457315,2,0
3,story,0,1,0.316859983341945,0.4894194320598778,0.2876408225801251,0.6734124456392427,2,1,1.4421922806513976,2,2,1,2,0.8494763573526143,1,1
3,story,1,1,0.3417394969329061,0.5154051831680697,0.2532106529177851,0.7262058578190154,2,1,0.7641057151531641,2,2,1,2,0.6189090549660251,1,0
3,story,2,1,0.3494499212010692,0.5482000647697447,0.2972903365329025,0.7125533162474116,1,2,0.9089895729521232,2,2,1,2,0.7011962732512984,2,1
3,story,3,1,0.3797730835068637,0.5392656349087428,0.2912438287439121,0.6745968123585124,2,1,0.9707466484496764,2,2,2,1,1.0030412347678066,2,0
3,story,4,0,0.3838712616396425,0.531433024323261,0.2971152337250391,0.6778241069061917,2,1,0.6835648261858296,1,2,2,1,0.4848699172998749,2,0
3,story,5,1,0.4258150035778073,0.5510489633174565,0.2781152336255657,0.6901024930543489,2,1,0.7222766830527689,1,1,1,2,1.2020073595949723,2,0
3,story,6,1,0.4633134381511707,0.5586004032349967,0.25791773491145564,0.7051819227568714,2,1,0.7562540136195821,2,2,2,1,1.0772429031067077,1,0
3,story,7,1,0.4806952476024826,0.5931404117176255,0.2715468457559391,0.6909609685756553,2,1,0.8132446196032106,1,1,2,1,1.0135794808866194,1,0
3,story,8,1,0.5099306764183266,0.6628424844504668,0.30950093466425704,0.7446700512715205,1,2,0.8911287977389293,1,1,2,1,0.9190257682266748,2,1
3,story,9,1,0.5131625541068853,0.6438351537690141,0.3273757178189325,0.7109858753086251,1,2,0.679371526363866,1,1,2,1,0.7272396334492441,2,0
3,story,10,1,0.5090582431815336,0.6197543571201023,0.3221546005733018,0.7010900663448596,1,2,0.9520707186529762,1,1,1,2,1.3209283179285194,2,1
3,story,11,1,0.5365595793949366,0.5996576445487312,0.3637314004185588,0.6890085285767351,2,1,0.7671490593784256,1,1,1,2,0.8048589240142974,2,0
3,story,13,1,0.5744468263076261,0.6397372073850014,0.3965074897513538,0.7093411386422763,2,1,0.8257778096540278,2,2,2,1,0.7123878484408124,1,0
3,story,14,1,0.5813723943714328,0.6531052116683741,0.4105941620730432,0.7013119212221168,1,2,0.9792158182781351,2,2,1,2,1.1721522100033326,2,0
3,story,15,1,0.6024354202576324,0.6353380403927988,0.42386807704363344,0.6993598291977423,1,2,0.8678244172097038,1,1,1,2,1.2952770154433892,2,1
3,story,16,0,0.5615979356801972,0.6229322420704078,0.4395906734532439,0.7416456205714895,2,1,0.8120178194903929,1,2,1,2,1.3190707900730558,2,0
3,story,17,1,0.5191520455931595,0.6571181102892811,0.5074138388239839,0.7024272399602489,2,1,0.8242788895458943,1,1,1,2,1.3859631887644357,2,1
3,story,18,1,0.5634720962457846,0.6460786324539347,0.4896253078390478,0.7193814364216058,1,2,0.7721023665399116,1,1,2,1,0.8261749903340387,2,1
3,story,19,0,0.5639511528119325,0.6512254674452005,0.5088187881503052,0.7371138664694955,1,2,0.787079814934259,1,2,1,2,1.3996644154740352,1,1
3,story,20,1,0.6046870204576485,0.6695453917253334,0.5143378288471938,0.7297029998952879,2,1,1.2783145677012726,1,1,1,2,1.2311377599189657,2,1
3,story,21,1,0.5763656412181286,0.6429242015107417,0.5287307229524552,0.7490326212096372,1,2,0.7977865162883973,1,1,1,2,1.067771439695207,2,1
3,story,22,1,0.5616943780699089,0.6072111703022713,0.5425606289053828,0.7033022521711967,2,1,0.8388519248346711,1,1,1,2,0.988347960410465,2,1
3,story,23,1,0.5360455664596349,0.5927023518854537,0.5024188770193663,0.6988360034569041,1,2,0.7164395132704158,1,1,1,2,1.177011194287843,2,1
3,story,24,1,0.5442634065410422,0.5967169740906534,0.48574747186067796,0.7332027803287947,2,1,0.6940735399011828,1,1,1,2,1.042904553986773,2,0
3,story,25,1,0.5708049334292793,0.5807058077322207,0.4759108764668882,0.7396258414283999,2,1,0.7441815893189414,2,2,1,2,1.31397765602469,1,1
3,story,26,1,0.5601367743630981,0.5518046273910513,0.46651913881369605,0.7473472056309055,1,2,0.7626670652534813,2,2,1,2,0.6031134384784309,1,1
3,story,27,1,0.5616762798744114,0.5707580293980927,0.4558787057642668,0.7349136484704362,2,1,0.801366566728575,2,2,2,1,0.6594769329331029,1,0
3,story,28,0,0.5682433202377174,0.5727975404002162,0.5132197991958909,0.7204243594192479,2,1,0.7144328166468767,1,2,1,2,0.9102829716466658,1,0
3,story,29,0,0.5646221920006829,0.5848980208348367,0.5514830845295646,0.7042678950433059,1,2,0.6783053463595934,1,2,2,1,1.22404154546075,2,1
3,story,30,1,0.536088708706171,0.6188374688523675,0.5119505896736904,0.6980291853769871,2,1,0.5904575985523479,2,2,2,1,0.5802764534237213,2,0
3,story,31,1,0.540664105667493,0.6380758560413485,0.5014535782421157,0.736922975004244,1,2,0.8824896659189108,1,1,2,1,1.4001839446791564,2,1
3,story,32,1,0.5163613118261763,0.6463870310454854,0.48625577840555495,0.7352972731547351,2,1,0.6757571219040983,1,1,1,2,1.1740025054323269,2,1
3,story,33,1,0.4475595416943541,0.6354105264558609,0.4903455697063622,0.6974048177821031,1,2,0.6622767855124039,1,1,1,2,0.7200162488479691,2,1
3,story,34,1,0.437005805659946,0.6387093139060336,0.4626744329660233,0.6986688059197369,2,1,0.7846584592707586,1,1,1,2,0.6502501665718228,2,1
3,story,35,1,0.4163408574514316,0.6393809959780324,0.465136311910582,0.7043144951192495,2,1,0.6144761810628552,1,1,2,1,0.8652469617036331,2,0
3,story,36,1,0.4275842541174471,0.5968749389635086,0.4738026590501117,0.6867178157605542,2,1,0.6355011422710959,2,2,2,1,0.5889170919990647,1,1
3,story,37,1,0.4327465635939943,0.6033132123393747,0.4414707716199751,0.6926529270930762,1,2,0.8450281145460394,2,2,1,2,0.6043920709716986,1,1
3,story,38,1,0.4016434633736339,0.5318036514172935,0.4689062546363249,0.6957584771542724,1,2,0.8266866844123797,2,2,1,2,0.7701026009908674,1,0
3,story,39,1,0.387525819103526,0.5388061569664484,0.485085032034909,0.6797896956020429,2,1,0.8429774206697402,1,1,2,1,0.6590562468718417,2,0
3,story,40,0,0.4268164717345034,0.5658474609522354,0.4762237498894528,0.660669388932265,2,1,0.7348162014768604,1,2,1,2,1.4249107021505552,2,1
3,story,41,1,0.4691564198516435,0.5705963051281744,0.5089150688144125,0.6681059566487488,1,2,1.2223907444240467,2,2,1,2,0.8631694475843688,2,1
3,story,42,0,0.470906351919574,0.5500526333389055,0.4649803117666049,0.6675232386334726,1,2,0.5750977356783551,2,1,1,2,1.3470168807816665,1,0
3,story,43,1,0.5084832512901276,0.5467109647553623,0.4392424244875253,0.6769392957555536,1,2,0.6358962134945614,2,2,2,1,0.7277992423423711,2,1
3,story,44,1,0.5042968534974184,0.5732254086296782,0.4595936682041791,0.6843731704731727,1,2,0.7133241461442594,2,2,1,2,0.8939642097411706,2,1
3,story,45,0,0.4845152821020728,0.5549343375289584,0.4496595737775935,0.696834399108191,2,1,0.8022751401349524,2,1,2,1,1.34423962953133,2,1
3,story,46,1,0.4567603610274089,0.5385425885599124,0.4600338120628287,0.7349829479676313,1,2,0.6234452922781202,2,2,2,1,0.696521113106428,2,0
3,story,47,1,0.4799587027558409,0.6149847714979426,0.4624721492564393,0.7369677027304762,1,2,0.6204631223163233,1,1,2,1,1.053520548675806,1,1
3,story,48,1,0.476816683004371,0.6453316110931682,0.4558735455106311,0.74099763941303,1,2,0.7824356939472636,1,1,1,2,0.7315335845187292,1,1
3,story,49,1,0.5055403081982158,0.6253757951103331,0.4774001148664439,0.7247042895694538,2,1,0.8124580933699691,1,1,1,2,0.8051235102338978,1,1
3,story,50,1,0.5141199121523727,0.6088955161655276,0.438642505920716,0.7238581069303718,1,2,1.0661302818925833,1,1,2,1,0.7478080478203992,2,1
3,story,51,0,0.5155028145125921,0.585935807442117,0.3827298303500648,0.7322247297389171,1,2,0.5907212807178439,1,2,2,1,0.9545547553343569,1,0
3,story,52,0,0.4649485755589802,0.5854251011898217,0.40730743798117397,0.7330645370268001,1,2,0.653122343402174,1,2,1,2,0.9503494014716124,2,1
3,story,53,1,0.4202305973815301,0.5638964080692748,0.43910504538769496,0.7192036330734358,2,1,0.7410321695260791,2,2,1,2,0.5941792839839763,2,1
3,story,54,0,0.44646292037369617,0.5897153692640867,0.4102291642086289,0.7481647752968196,2,1,0.5339485515414708,2,1,1,2,1.2745666647278997,2,1
3,story,55,0,0.4235435407272603,0.5912067115257922,0.3917758985988242,0.7319662284443345,1,2,1.1878287928266218,1,2,2,1,1.235200273385999,2,1
3,story,56,1,0.3966757842104869,0.5965572626993177,0.40137089267886,0.7278389259384404,1,2,0.8717513227047675,2,2,1,2,0.857317812950896,2,0
3,story,57,1,0.3994034525153399,0.5985892834520639,0.3451332393029485,0.70031189352453,2,1,0.7531907802249407,1,1,1,2,1.0922034758432346,2,1
3,story,58,1,0.4013629423493976,0.6053622654363214,0.3485937303634273,0.7039816860590179,1,2,0.6211800364571899,1,1,2,1,0.8550441193001461,2,0
3,story,59,1,0.4288517914251434,0.6027381056432275,0.3495483640789521,0.7302413212396123,2,1,0.7261888223474671,2,2,1,2,0.8607752135148985,2,1
3,story,60,1,0.41719757631284615,0.5907552762043509,0.3616500686041911,0.7112866273863152,1,2,0.6763420442875939,2,2,2,1,0.6985718069818176,2,1
3,story,61,0,0.3864337768049617,0.5731888768676463,0.35447150878510825,0.7187708582680554,2,1,0.5861980014997243,2,1,1,2,0.9729567570293512,2,1
3,story,62,1,0.4022966074342592,0.5815777565243345,0.3714555407625829,0.7072304774339868,1,2,0.8093174127561724,2,2,2,1,1.6146003376943554,2,0
3,story,63,0,0.4211286323988682,0.5839180616524913,0.3846853226057383,0.7224662099056485,2,1,1.028012990640491,1,2,2,1,0.9342702136491424,1,0
3,story,64,1,0.4289808327455768,0.6134316197887428,0.37883998310569744,0.7163254702077684,1,2,0.786440649362703,1,1,2,1,0.7109534174560395,2,1
3,story,65,0,0.4280465463857624,0.6524698785055026,0.39915219043673145,0.6865237878568693,1,2,0.6814918323316306,1,2,1,2,1.3520223216746672,2,0
3,story,66,0,0.4732249697266613,0.6553653687308636,0.4844222216272477,0.6744209831735708,1,2,0.8178001433825557,1,2,2,1,1.4975974787766972,1,1
3,story,67,1,0.4814907592038882,0.6335923738346585,0.4609975179934391,0.6722813565903676,2,1,0.6962860592902871,2,2,2,1,0.7220211373651182,1,0
3,story,68,1,0.4415739825023621,0.6202315433602861,0.41127836016228136,0.6976221779930832,1,2,0.8975349182992431,1,1,1,2,1.144380601550438,2,0
3,story,69,1,0.4420343133973371,0.6549530058678595,0.3535892893147259,0.7369535845735291,1,2,0.7147733433303074,1,1,1,2,0.6851378786514033,1,1
3,story,70,1,0.4732083938401514,0.6918185893548959,0.3458256030662081,0.6981596994119783,1,2,0.7370579519165403,1,1,2,1,0.8472240596265692,1,1
3,story,71,1,0.4529339663649521,0.6577817287776044,0.2906122994641174,0.7079291007861997,2,1,0.6736042700231337,1,1,1,2,0.7729045630276232,1,1
3,story,72,0,0.4896736556080392,0.6598553450577388,0.2872300124801901,0.7016688382827696,1,2,0.8915630445981151,1,2,2,1,1.1137087906208762,1,0
3,story,73,1,0.4700283392478191,0.6321837623794013,0.28787711095895097,0.6705362250490401,2,1,0.8385677507976652,1,1,2,1,0.694263391061213,1,0
3,story,74,0,0.4777338658738387,0.6163053759792725,0.3136652668706052,0.6981464966113129,2,1,0.6030688385235408,2,1,2,1,1.7051177544281018,1,1
3,story,75,1,0.466113251154944,0.6143330855845681,0.3389848316995597,0.7084592886117296,1,2,0.8304743657236031,1,1,1,2,0.8923691586487621,1,0
3,story,76,1,0.4552989231413998,0.5865152664968385,0.3401509591965776,0.6795137824051389,1,2,0.8435484809042464,2,2,1,2,0.7981134821748128,2,0
3,story,77,1,0.4484074565269505,0.5545937351242445,0.3366030086436642,0.6435266779480733,2,1,0.5683149263095402,2,2,1,2,1.2667529334266874,1,0
3,story,78,0,0.4357034184598054,0.5607664207300811,0.3541896064700129,0.6491345528273136,1,2,0.8713215961124661,1,2,1,2,1.3758848043435137,2,1
3,story,79,1,0.4648414063433798,0.5385196985909384,0.36999332517461503,0.6190878443376233,1,2,0.863243278590744,2,2,2,1,1.1508735112129216,2,0
3,story,80,1,0.4791717687112376,0.5882338268539905,0.3324499565126531,0.6991709645575652,1,2,0.7521658853138433,1,1,2,1,0.6297393102495334,1,0
3,story,81,1,0.5084641184214641,0.5559409707940388,0.374502671712822,0.7051294693285763,2,1,0.8511048584114178,1,1,1,2,0.8770789078671442,2,1
3,story,82,1,0.5022246248229605,0.5524992592515554,0.37270758733692544,0.7255712122684407,2,1,0.7604442999299863,1,1,1,2,0.8301353457954974,2,1
3,story,83,1,0.5518012563652006,0.5564779810506969,0.389446652252178,0.7345241602150613,1,2,0.6764508320156892,1,1,2,1,0.8146956248956485,2,1
3,story,84,1,0.5074955811579727,0.5509698959279186,0.3828308063916497,0.7271952268526263,2,1,0.800510729754933,1,1,1,2,1.0235222573364808,2,1
3,story,85,1,0.5025389675582983,0.5727058356851846,0.4015723540254797,0.7326403284036287,1,2,0.7372707057547814,1,1,2,1,0.7451025181189834,2,1
3,story,86,1,0.4649307752343326,0.6033012327186954,0.3760474730301293,0.7311189001888092,2,1,0.8051988479946885,1,1,1,2,0.8922651925377068,2,1
3,story,87,1,0.47670940509971604,0.6471040150729235,0.3679363297053704,0.6969874375212761,2,1,0.8003440826259975,1,1,2,1,0.6443572468442653,2,1
3,story,88,1,0.44333776173138784,0.661310698557103,0.3645933069680036,0.6598161451910602,1,2,0.7912212823748632,1,1,1,2,0.9672136087719992,2,1
3,story,89,1,0.4174245231144473,0.6223048557349551,0.32476905130417943,0.6736840749069272,2,1,0.924277714276286,1,1,1,2,0.8880899737787331,2,0
3,story,90,1,0.4059799637417696,0.6738170596712187,0.3451406413818422,0.6729042163026808,1,2,0.8257139232327972,2,2,1,2,0.5441652560930379,1,0
3,story,91,1,0.4056253970844925,0.6943616831031341,0.32707401951470416,0.707267039665373,2,1,0.6750371942534912,2,2,2,1,1.0403273998317673,2,1
3,story,92,1,0.4381422980754438,0.7100174528963265,0.3521552514158123,0.7060277559678159,1,2,0.8081774017446149,2,2,2,1,0.9022058595301132,2,1
3,story,93,1,0.4360392895216054,0.716533075992521,0.3550936423438185,0.7198046149332707,2,1,0.8613396440259748,2,2,1,2,1.273397724015922,1,1
3,story,94,1,0.4060850456313889,0.7421580881984515,0.3480939221774821,0.7360304764960459,1,2,0.8554705310316422,2,2,2,1,0.9514345665929796,1,1
3,story,95,1,0.40690654281773053,0.7493761130894299,0.3781299026147382,0.7228277103965304,2,1,0.6953422278093058,2,2,2,1,0.7412729490115453,1,1
3,story,96,0,0.39754988451703976,0.7482537578777417,0.34620571948320394,0.6917075053861266,2,1,0.8806200840226666,2,1,1,2,1.397710455284141,1,0
3,story,97,0,0.4431852474349366,0.7082614159664172,0.34565929082356783,0.6633645146090104,2,1,0.6512720479731797,2,1,2,1,1.2619671774464225,1,0
3,story,98,1,0.4471668288716241,0.6973095860343765,0.3678518680184725,0.6446576342104444,2,1,0.7901749915399705,1,1,2,1,1.0406929386517731,2,0
3,story,99,1,0.4641324498470326,0.7009630789961656,0.38529407097997176,0.6335105132140908,2,1,0.6756884138658279,2,2,2,1,1.0529181479323595,1,0
3,story,101,1,0.4056027361789016,0.6381872896356557,0.36146610144431657,0.6190909669429556,2,1,0.6598927973791433,2,2,1,2,0.5409721403966614,1,1
3,story,102,1,0.3672995741051719,0.6108228750993931,0.3635480199649471,0.6153104126187356,2,1,0.6346344566591142,2,2,1,2,0.5234741918438885,1,0
3,story,103,1,0.3700937319079181,0.5683994786907769,0.3695280854740637,0.6428865460283124,1,2,0.8173438978974445,2,2,2,1,1.0343573342370291,2,1
3,story,104,0,0.3876896894914884,0.569808399559907,0.38740805591530575,0.6154185367378617,1,2,0.5478381226548663,2,1,2,1,0.9092231200138484,2,0
3,story,105,1,0.4249459312975548,0.5799904664232339,0.398940411267381,0.610946252709903,1,2,0.661514970065582,2,2,1,2,1.205245376597304,1,1
3,story,106,1,0.4605250110789313,0.6146276550287207,0.4060987441762357,0.6058996939435521,2,1,0.7129115965608435,2,2,1,2,0.5152813609256555,1,0
3,story,107,1,0.4317121472239927,0.6267211096600187,0.3943234993337677,0.5817623118214952,1,2,0.8286768067273442,1,1,2,1,0.6530497178000587,1,1
3,story,108,1,0.4285075170474024,0.5845321556910275,0.4231542716442688,0.5924113217824489,1,2,0.6004187574153548,1,1,1,2,0.9743309178029448,1,0
3,story,109,1,0.43846961117142336,0.5408943262765646,0.4535922414422102,0.5913673272752509,1,2,0.6371311500852244,1,1,2,1,0.7649790304867565,2,0
3,story,110,1,0.4576521739453455,0.5125486930860751,0.4441334688920222,0.5643874570932326,2,1,0.7323189053486203,2,2,1,2,0.8111110541894959,2,1
3,story,111,1,0.4673720531167041,0.5005909710891072,0.3973683931323848,0.5209993727841424,2,1,0.6199544417486322,2,2,1,2,0.9174753170891564,2,0
3,story,112,1,0.4828708988531138,0.5045805138106537,0.3994187190613379,0.5271855461266226,1,2,0.9136906492876732,2,2,1,2,0.5462732066680474,1,1
3,story,113,1,0.4660266274828309,0.4601627455112074,0.4163409393915101,0.5971663068251022,2,1,0.5917323134808612,2,2,2,1,1.0389505268967696,1,1
3,story,114,1,0.4588233384681264,0.455118166234937,0.41854573248275057,0.6170568456585543,2,1,0.7273903089717351,2,2,1,2,0.4868485882761888,1,1
3,story,115,1,0.44833607384756297,0.5003703753259865,0.4022111998850659,0.5918022440499082,1,2,0.6425988634846362,2,2,1,2,0.6525347088600029,1,1
3,story,116,1,0.4154492706059463,0.5031794391172083,0.4326432104917457,0.5812942590258441,2,1,0.6000851618064189,2,2,2,1,0.6892654839439274,1,0
3,story,117,0,0.4188662269812856,0.4998744339289778,0.3956277789433322,0.5968150502442466,2,1,0.8244292637182298,2,1,1,2,1.0315999721551634,1,0
3,story,118,0,0.4026124424434401,0.5176520368534485,0.3933636441384545,0.5985095031240854,2,1,0.6760021203062934,1,2,2,1,1.2743430622513188,2,1
3,story,119,1,0.39956479184981175,0.538228023546063,0.4099857934819309,0.6042611559967088,1,2,0.8302543794598023,2,2,2,1,1.0602057203059303,2,0
3,story,120,0,0.4107862238199135,0.5758699619771864,0.4271293268655838,0.5994524523684965,1,2,0.5804063357254563,2,1,2,1,1.2062383282973317,1,1
3,story,121,1,0.4502569583160904,0.5862330342920546,0.4928615551818853,0.5830546978343345,2,1,0.7679572828865275,1,1,2,1,0.7011164152245328,1,1
3,story,122,1,0.4864339053108722,0.6113060743312643,0.5081492527266704,0.5314564356238447,2,1,0.6344304420008484,1,1,1,2,0.8218237825640244,1,1
3,story,123,1,0.4966923532323919,0.6612821950806924,0.518465933181248,0.487534534805677,1,2,0.8549070045737608,1,1,1,2,0.9526698045347076,1,1
3,story,124,1,0.51816165622819,0.6680027397052123,0.5030878694197745,0.5081719882207077,1,2,0.8039060520031853,1,1,1,2,0.6574256363555833,1,1
3,story,125,1,0.5169997775893918,0.6601981411824962,0.528688318715703,0.5195368292040672,2,1,0.7513799617827317,1,1,2,1,0.7809985508029058,1,0
3,story,126,0,0.5415911109487983,0.6197344358583559,0.5190500177173529,0.5321910552907404,2,1,0.7123694660267574,2,1,1,2,0.7756610210553845,1,0
3,story,127,0,0.5811774214702792,0.5943716773569707,0.5482420703874428,0.5788015845373546,2,1,0.7170395032044325,2,1,1,2,0.7691910140738399,2,1
3,story,128,1,0.604449935972064,0.6029949618123129,0.5662474620303728,0.5219684524863224,2,1,0.6406331506041171,1,1,2,1,0.7864219655984925,2,1
3,story,129,1,0.6244887630546525,0.644598358168809,0.5601375950186984,0.5070170590662306,2,1,0.6774525228966013,1,1,1,2,1.1022743264884411,2,1
3,story,130,0,0.6204228992518144,0.6159346246919106,0.5530150203003765,0.5104147621075992,1,2,0.7131785935880544,1,2,2,1,0.9963003131942968,2,1
3,story,131,1,0.6161645292667195,0.642655599632054,0.5354632864651947,0.5292973036434027,2,1,0.6840041960122107,2,2,2,1,1.15002370125967,2,1
3,story,132,1,0.5547037097200258,0.6388547867029493,0.5500645395733944,0.5459886410182608,1,2,0.9266797834734462,2,2,2,1,0.6185667201771139,2,0
3,story,133,0,0.5697234777143664,0.6477329453610565,0.5259827064327647,0.5223226552340574,2,1,0.7192218874879472,1,2,2,1,1.4788441017608418,1,1
3,story,134,1,0.5979860572653626,0.6687398898034479,0.5226923357042166,0.5158503418016944,1,2,0.7541496792573525,2,2,1,2,0.6101912705235009,1,0
3,story,135,1,0.5731006824776579,0.6372468623442864,0.5013213374005161,0.5393501386683683,2,1,0.6945843299263288,1,1,1,2,0.7692530923886807,2,0
3,story,136,1,0.5708342913855007,0.6414438827346943,0.4835603703442772,0.536071109256036,2,1,0.8070813879867273,1,1,2,1,0.7330689681048169,1,0
3,story,137,0,0.5906218714912254,0.6543686442202619,0.5076925564560375,0.5445657639594195,2,1,0.7496227838273626,1,2,2,1,1.20776467135056,1,0
3,story,138,1,0.6027988129073536,0.6687547005654897,0.5063110707473433,0.5607257066362106,1,2,0.6772180717807714,1,1,2,1,1.0332863326148072,2,1
3,story,139,1,0.6223833573995035,0.6720856646709913,0.5356340170437289,0.568223605443509,2,1,0.7268994081168785,1,1,1,2,0.9411377026626724,2,1
3,story,140,1,0.606175447876635,0.6351978425768694,0.5122367029366521,0.5837242553305224,1,2,0.7976918920594471,1,1,1,2,0.9213386375140544,2,1
3,story,141,0,0.5997153876062664,0.6503524797809762,0.4842383087270656,0.5755396623124827,2,1,0.7265308557853132,1,2,1,2,1.1401228126051135,1,0
3,story,142,1,0.668951473601854,0.6679867930180091,0.4602309649438727,0.5590231476454603,2,1,0.7761528259643455,1,1,2,1,0.7748145259638477,2,1
3,story,143,1,0.7058899655920804,0.6677320185236361,0.4779010535654472,0.5085209776250971,1,2,0.6742419288393648,1,1,2,1,1.3603718551385098,2,1
3,story,144,1,0.7020895921247354,0.6849177878602485,0.4858783144096226,0.5617639539624042,1,2,0.6558308866133302,1,1,2,1,0.6830413794159541,2,0
3,story,145,0,0.6943969001308048,0.6802531892529526,0.4564688546147962,0.5521104404199204,1,2,0.9431956289627124,2,1,1,2,1.4512542079910418,1,1
3,story,146,1,0.697855359675062,0.6579048534200598,0.4455940488221693,0.5939182333930753,1,2,0.6530298286306788,1,1,2,1,0.6373231107018,1,1
3,story,147,0,0.7355753054096237,0.6909574080708766,0.4540844706157347,0.6107986223183087,2,1,0.8599263076148418,1,2,1,2,0.9938039211201612,1,0
3,story,148,1,0.7493558670273945,0.6886615893152213,0.45530875333675896,0.5857702642429392,1,2,0.8974963453656528,1,1,1,2,0.7165272064248711,1,1
3,story,149,0,0.7307233373830341,0.6553604418828847,0.4993459955821571,0.5939516211094467,2,1,0.8376817787193431,1,2,2,1,1.1601768207401622,2,1
5,abstract,0,1,0.6086890859530353,0.7139823845937561,0.3042330084740185,0.3532423384835702,2,1,0.8902903730033813,1,1,2,1,0.9204496039792502,1,0
5,abstract,1,1,0.6201706723386016,0.7343309409973944,0.2837249789752203,0.34544401473118524,2,1,0.6930987856449065,1,1,2,1,0.7203098975494413,2,1
5,abstract,2,1,0.6206309928819418,0.7313908704808383,0.3193063009318409,0.3171423354311016,1,2,0.7304033556063132,1,1,1,2,0.8457705505716149,2,1
5,abstract,3,1,0.6123454501172363,0.7445867614807071,0.3245810843619213,0.32871124126810203,1,2,0.6469052584884594,1,1,1,2,0.6522430928037011,2,1
5,abstract,4,1,0.5954293822677776,0.7406132890582232,0.3669426192575542,0.32625336917061265,2,1,0.7188736575931216,1,1,2,1,0.7611695079567653,2,1
5,abstract,5,1,0.5640162717681769,0.7461423407455068,0.3619379653078161,0.3748301064639271,1,2,0.6106292002712053,1,1,1,2,0.6097197222627528,2,1
5,abstract,6,0,0.5540598387394327,0.7443126925376622,0.3698560316884405,0.3239311872026063,2,1,0.6458812670132374,1,2,1,2,1.393243163018724,1,0
5,abstract,7,1,0.5436213598675863,0.719233606540503,0.3711652480064045,0.3122524069698205,1,2,0.6039367921825942,1,1,1,2,0.8826125463967855,2,1
5,abstract,8,1,0.5252277483685075,0.6834953843748477,0.3890713007899945,0.2807121083746911,1,2,0.6503153489934448,1,1,1,2,0.643829969198805,2,0
5,abstract,9,1,0.5338500374912952,0.6470708322082349,0.35047518141388245,0.30685824639356096,1,2,0.6698983572441648,2,2,2,1,1.078928105733212,2,0
5,abstract,10,1,0.5218939882677671,0.6886540941979329,0.4165087408243007,0.331132848218884,2,1,0.7521524764893002,1,1,2,1,0.8364078692450221,2,1
5,abstract,11,1,0.5188335767665917,0.6620877855420266,0.3733947691172412,0.29813000279391066,1,2,0.6399283748401103,1,1,1,2,0.8443080930583164,2,1
5,abstract,12,1,0.5431048997471712,0.6658365982472829,0.3267471045418047,0.2940321940945201,1,2,0.5460499332957625,1,1,2,1,0.700620512315254,2,1
5,abstract,13,1,0.5641941813764477,0.6463485411632249,0.31107619146159937,0.3043664793105213,1,2,0.5429339615902791,1,1,1,2,0.5770637963566969,2,1
5,abstract,14,1,0.5293028050962216,0.6255490245495454,0.3142630131399389,0.3329261044237156,2,1,0.7083399253915559,1,1,1,2,0.7408792283722505,2,1
5,abstract,15,0,0.4912620241853167,0.6637847400478504,0.31859345754274243,0.3549997719061895,1,2,0.6759100129070248,1,2,1,2,1.2105559116521365,2,1
5,abstract,16,1,0.4946934102451597,0.6335703188995665,0.3442867545101678,0.3632525235073879,2,1,0.6658316224115879,1,1,2,1,0.6343916487139722,2,0
5,abstract,17,1,0.5133106253973876,0.6237346559712621,0.3579728548174879,0.3845043337567977,1,2,0.9996893068832832,2,2,1,2,0.6748974727779569,2,0
5,abstract,18,1,0.5209836747244561,0.6562295479204571,0.3305286529804754,0.3811932574763353,1,2,0.6711363080917181,1,1,2,1,0.6443416635852373,2,1
5,abstract,19,0,0.5408746262250272,0.6354519072467664,0.3039384397756,0.32958308902813016,2,1,0.6315411674404459,1,2,2,1,1.051376768290993,2,0
5,abstract,20,1,0.5107347157239666,0.614854711645838,0.32778649707626706,0.305629261807971,2,1,0.6141987055762002,1,1,2,1,0.8029837990566193,2,1
5,abstract,21,1,0.5063226902732834,0.6331027723178974,0.32307363994301364,0.3161172149691731,2,1,0.6313636715667599,1,1,1,2,0.6280753269584238,2,1
5,abstract,22,1,0.5036106664269311,0.6522600961184399,0.32173692304996404,0.293574690660521,1,2,0.7087693508924531,1,1,2,1,0.6738288813207873,2,1
5,abstract,23,1,0.4741433757649114,0.6511834111410177,0.3606099947698159,0.2938398976915009,2,1,0.6775541852111928,1,1,2,1,0.5913276540677543,2,0
5,abstract,24,1,0.4913522362480482,0.6081162388531773,0.3500257196998213,0.2954009513073011,1,2,0.6291074549171753,1,1,1,2,0.6744831148384947,2,1
5,abstract,25,1,0.4827968173738495,0.5898303211264322,0.3768169055768341,0.26283803587810906,2,1,0.6393838331696315,1,1,1,2,0.6788331198258675,2,1
5,abstract,26,1,0.4087049695162071,0.5691757157128152,0.3806103784237349,0.2743366329536059,1,2,0.709397065502344,1,1,2,1,0.6136616976864389,2,1
5,abstract,27,0,0.3748938001135784,0.5647474803608272,0.3880622836522907,0.2926469643424527,2,1,0.6313844648016129,1,2,1,2,0.9369961972488454,2,0
5,abstract,28,0,0.3585056045865602,0.6028228734697858,0.38681226180852346,0.2629987425241822,2,1,0.8637491648805735,1,2,2,1,1.1470298672220451,1,1
5,abstract,29,0,0.3811536605643773,0.5548962980366887,0.3699877311088178,0.26462298826065184,1,2,0.7184207266964222,2,1,1,2,0.9848034602355256,2,1
5,abstract,30,1,0.3844721934472459,0.5485302221643005,0.3838912384354992,0.2566340658887403,1,2,0.7957661357763754,2,2,1,2,0.9669131418368124,1,1
5,abstract,31,1,0.3919877822665478,0.5037437499026525,0.3492874817793159,0.2825641067021583,2,1,0.8933924825523718,1,1,1,2,0.6161912399006724,2,0
5,abstract,32,0,0.3514357540713136,0.5224939510372012,0.373846975045844,0.2659566194962508,2,1,0.7088724130126138,2,1,1,2,1.1142600305511223,2,1
5,abstract,33,0,0.377738958730696,0.4816292325615397,0.35178686542305737,0.27813391738319204,1,2,0.920859441650464,2,1,1,2,0.9730031488188616,2,1
5,abstract,34,1,0.3559735442558649,0.5030917110741442,0.3533004162413841,0.2893135429977762,1,2,0.8991488937244867,2,2,1,2,1.1246732222616629,1,1
5,abstract,35,0,0.35865219657419056,0.5205183470676685,0.3259900682403094,0.2767650700209949,2,1,0.9214072981840218,2,1,2,1,1.229024523058797,2,1
5,abstract,36,1,0.34084945900129626,0.50516200824095,0.3056923259577826,0.2765679491043038,2,1,0.6943816378256997,2,2,1,2,0.6639982015358328,1,0
5,abstract,37,0,0.3780815106377352,0.5188490444813154,0.3121615292278941,0.2881393507605908,2,1,0.7121914954464046,1,2,2,1,1.0527656961048706,1,1
5,abstract,38,1,0.32080741985532235,0.5229140973748285,0.30209891417522305,0.26756353429070723,2,1,0.6032867775816158,1,1,2,1,1.078750609859526,2,1
5,abstract,39,0,0.3055120197215297,0.5077387272287894,0.323216333315943,0.28452935473543545,2,1,0.6945907755789449,1,2,2,1,0.9593413908623916,1,1
5,abstract,40,0,0.3278064647416625,0.5383903884323306,0.35904748718790713,0.2986680199299126,1,2,0.7914971942691409,1,2,2,1,0.9372595782228929,1,0
5,abstract,41,1,0.3069278221071321,0.5161806664025743,0.3614640392381529,0.2713883132948109,2,1,0.9288184289534912,1,1,2,1,0.6737345583860588,2,1
5,abstract,42,0,0.3471945559670984,0.5395186098873069,0.3524388869322139,0.2833253113618333,1,2,0.6271134138360139,1,2,1,2,1.2067748577846942,1,0
5,abstract,43,0,0.37999192365519024,0.5311613563080364,0.3446373496292985,0.29361228878677786,1,2,0.5696457345088675,1,2,1,2,0.9149725453962674,2,1
5,abstract,44,0,0.37087394091343184,0.5468771743286381,0.2945686384919353,0.299981865004399,2,1,0.7333562962971882,1,2,1,2,1.0083290466118342,2,0
5,abstract,45,1,0.4045008793516519,0.5826748431587168,0.29430856888225354,0.2649655075789772,1,2,0.8906583228535965,1,1,1,2,1.1756205650517586,2,0
5,abstract,46,1,0.3402865795536449,0.5843010467358192,0.3050792055332198,0.25567274232072457,1,2,1.1985509827518401,1,1,1,2,0.9740232227281922,1,1
5,abstract,47,1,0.3856819991057989,0.615848984809057,0.2684665282491288,0.2520518713914788,1,2,0.5309151705328077,1,1,1,2,0.7217485483160999,1,1
5,abstract,48,1,0.3975296401422344,0.5964674687215779,0.2659059860138813,0.27016433918243343,1,2,0.6489188873993044,1,1,2,1,0.7811710930641311,1,0
5,abstract,49,0,0.4224922209294051,0.5640661285425244,0.2655806530653968,0.26016289594091635,2,1,0.7496819991160919,1,2,2,1,1.6251962173187169,2,1
5,abstract,50,1,0.42747940428854464,0.5382739373429075,0.26054849211187925,0.25556945313822754,1,2,0.7648565402409986,1,1,1,2,1.0205268402992258,1,1
5,abstract,51,1,0.4120665959218257,0.5442998760959856,0.31089238391566154,0.2602318284250929,1,2,0.534986124283023,1,1,1,2,0.6660449790815619,1,0
5,abstract,52,0,0.396091572919858,0.5723257811674957,0.28060446777227693,0.2686385388704305,2,1,0.8127780153431559,1,2,1,2,1.3901449710356246,2,0
5,abstract,53,1,0.38466587842414857,0.5411053971855897,0.2584048990134282,0.2837463831706244,1,2,0.7514210970571185,1,1,1,2,0.6589300765704138,1,1
5,abstract,54,1,0.389275522583342,0.5334926197136154,0.25877157903523423,0.27532332529945225,1,2,0.9330084164384972,1,1,1,2,0.7571790149854678,1,1
5,abstract,55,1,0.35832433939647634,0.5281523651844209,0.2596143986502541,0.2953463766992569,1,2,0.5656787469333722,1,1,1,2,0.7067379422592239,1,0
5,abstract,56,1,0.326153584420704,0.5201876653403605,0.25752811115019925,0.2654907135806912,1,2,0.6738312921306715,2,2,1,2,0.8229745355201885,2,0
5,abstract,57,1,0.3419342062817399,0.5125214974843422,0.2870093473142925,0.2887864083687787,1,2,0.5451739052737139,2,2,2,1,0.9049987237776804,1,0
5,abstract,58,1,0.3287405699574455,0.4765925606442074,0.25883618626076865,0.3085944009785156,2,1,0.7651889306457633,1,1,1,2,1.5605720490107158,2,1
5,abstract,59,1,0.35020468131722565,0.5279054749721406,0.2627796579284393,0.3266704429364784,2,1,0.6501212788020894,1,1,2,1,0.7676488607266947,2,0
5,abstract,60,1,0.37516609569094495,0.5203162102038434,0.3028999358378962,0.25639016427821826,1,2,1.0350194235934396,1,1,2,1,1.0122451058300612,1,0
5,abstract,61,1,0.4014941400229964,0.4855064093737993,0.31344516189399313,0.2532374895159646,2,1,0.8227765477627145,1,1,2,1,0.7551084306924167,1,1
5,abstract,62,1,0.4408207759468106,0.4794070462754656,0.31390611675801594,0.2539318668445948,2,1,0.671331885039308,1,1,1,2,0.8726652436862423,1,0
5,abstract,63,1,0.4144383072884614,0.4627782041955824,0.3347573446356171,0.262042307442407,1,2,0.7759541005916617,2,2,1,2,1.1259316649925497,1,0
5,abstract,64,1,0.4333927848418899,0.460463644166305,0.305394666268604,0.2637701861592799,1,2,0.7026344425771639,2,2,1,2,0.5229112818969952,2,0
5,abstract,65,0,0.3985561262016093,0.4684690274589498,0.3625168067630546,0.2881161569915521,2,1,0.6495845722633931,1,2,2,1,1.7207634311489528,1,0
5,abstract,66,1,0.4038897567182874,0.4860440042721573,0.34039791705579114,0.2548881070584161,1,2,0.8146274078339957,1,1,2,1,1.2030040498593737,2,0
5,abstract,67,1,0.4368338418169,0.5188648399519533,0.3503777677396689,0.2526255496635903,2,1,0.737700876962208,1,1,2,1,0.5468876897120936,1,0
5,abstract,68,1,0.4207904668005191,0.5196559452762383,0.32967815922596144,0.2701252033184276,1,2,0.8258210992266868,1,1,2,1,0.6678919607625176,1,1
5,abstract,69,1,0.441328530075416,0.4790298749407462,0.3543375283231437,0.2838178378058735,1,2,0.7026995344426723,1,1,1,2,1.033897191617143,1,0
5,abstract,70,0,0.4459340799893162,0.4578362611206801,0.3281069070766336,0.29832757291852874,1,2,0.5629729142501674,1,2,1,2,1.5539516638659734,2,0
5,abstract,71,1,0.4631374120782202,0.43525622384192975,0.3409813403047344,0.26253544185762223,2,1,0.8870818864706962,1,1,1,2,1.4509974273646549,1,1
5,abstract,72,1,0.5092768064183123,0.4824163787531405,0.4011738315870177,0.2506107329350411,2,1,0.8447474631502699,1,1,2,1,1.6351685321815241,1,1
5,abstract,73,1,0.4869819544118141,0.5032396890376818,0.4163386052590832,0.2709494578395362,2,1,0.6283257498298553,1,1,2,1,1.0149738412064837,1,1
5,abstract,74,1,0.5062544802300208,0.4467724600217411,0.4075350911473814,0.27158995362265115,1,2,0.6178049757309054,1,1,2,1,0.8179172591985662,1,0
5,abstract,75,1,0.4679266186517499,0.4442339046405874,0.4475985861356933,0.26344146252516953,1,2,0.7386920211533834,1,1,2,1,0.8027466356393234,1,1
5,abstract,76,0,0.4686987044958137,0.4618196274806591,0.4423273242294967,0.2502385285234157,1,2,0.6275868366165014,1,2,2,1,1.783197680077592,2,0
5,abstract,77,1,0.4214935207662181,0.4750322764498058,0.4706927862317528,0.2606774623361685,2,1,0.69767179054179,1,1,2,1,0.8426672356176823,1,0
5,abstract,78,1,0.4233519214602792,0.4880026744236322,0.4895319546978373,0.27041335978357045,2,1,0.8003165393306517,1,1,2,1,0.8061036883282213,1,1
5,abstract,79,1,0.4248990342353227,0.4467971196519018,0.5378309899306427,0.25084157903245674,2,1,0.6533800909901402,1,1,2,1,0.7221119778973843,1,0
5,abstract,80,1,0.394765401899472,0.4296447093011362,0.5189453178506112,0.2758101483323928,1,2,0.7433970178881282,1,1,2,1,1.0829927311069696,1,1
5,abstract,81,1,0.3763533017265592,0.3622545323043767,0.498317117286927,0.2650160819865275,1,2,0.7140197933513264,1,1,1,2,0.9901126661839044,1,0
5,abstract,82,0,0.3698328789455401,0.3711459307408759,0.5126441488381018,0.26472256414223994,1,2,0.6523295806064198,1,2,1,2,1.5521402416293313,1,0
5,abstract,83,1,0.3772810242698095,0.3859516428482072,0.4896483936912257,0.25591973997379025,1,2,0.6689183630483058,1,1,1,2,1.0037117430847502,1,0
5,abstract,84,1,0.37879753395262217,0.4026669913160588,0.4963000904364922,0.3071761969947013,1,2,0.6724321183755819,1,1,1,2,0.5152027174649447,2,0
5,abstract,85,1,0.3532040595239174,0.38327229407608204,0.4896624783964265,0.3041992186086855,1,2,0.648457217316718,1,1,1,2,1.0171318173556756,1,0
5,abstract,86,1,0.3954448357986414,0.4015492076814605,0.4751174891217067,0.2735668735540715,2,1,0.740709266279282,1,1,2,1,0.7456652885871335,1,1
5,abstract,87,0,0.38763213922760587,0.4059873458716576,0.4826197597017894,0.2524131380156458,2,1,0.8597149759807508,1,2,1,2,1.3218265380137382,1,0
5,abstract,88,0,0.3736170765537388,0.4088798460715259,0.4930187683414504,0.25176477035532496,2,1,0.9252163777159694,1,2,2,1,0.9955294545211472,2,0
5,abstract,89,1,0.3684492753659203,0.4227913513378893,0.4504647355778794,0.2560723316733058,1,2,0.7907218175578237,1,1,2,1,1.2903570318953823,2,0
5,abstract,90,1,0.3808444724179592,0.38989032442516347,0.4230123211293653,0.2782485331654305,2,1,0.6768321476665733,1,1,2,1,0.7033115787880888,1,0
5,abstract,91,1,0.38324740288092574,0.3934218751804721,0.4485201197692909,0.310017536625729,2,1,0.5385917917351435,1,1,2,1,0.9370362769623172,1,1
5,abstract,92,0,0.4077252138211068,0.3573053286002741,0.4648369831446047,0.3124524520607444,2,1,0.6431694073053222,1,2,2,1,1.7738786946788423,2,0
5,abstract,93,1,0.4218977522524934,0.3868062655276321,0.4520045616398512,0.3308723117956259,1,2,0.5824772698301786,1,1,2,1,1.2836004359951405,1,0
5,abstract,94,1,0.4524799746799815,0.40607429831298986,0.4802715546261809,0.3022090473563206,1,2,0.7031470410170186,1,1,2,1,0.874274760598837,1,1
5,abstract,95,1,0.4371382512839417,0.3911639969974894,0.4367060621731267,0.30447083639783845,2,1,0.661728424080593,1,1,2,1,0.8080739226616059,1,1
5,abstract,96,1,0.4129844289713247,0.3702465817771614,0.4507249624823527,0.32002366344053595,1,2,0.7632253260394464,1,1,2,1,1.241645715222603,1,1
5,abstract,97,1,0.4512125731145409,0.3467546423676897,0.4376965824010006,0.29669556508288153,2,1,0.6545207053909508,1,1,1,2,0.8637600135243702,1,1
5,abstract,98,1,0.4467135112223233,0.3657347527049977,0.3955341580849292,0.2951386753631664,1,2,0.7255995156683639,1,1,2,1,0.8810907226911695,1,0
5,abstract,99,1,0.4498817527921013,0.3634047858527945,0.4196240072965712,0.2787124309197821,2,1,1.4158017133022442,1,1,2,1,0.7692499398049222,1,1
5,abstract,100,0,0.44487321195275054,0.3698161074771893,0.4641806479817457,0.27019605274280645,2,1,0.8106531878288479,1,2,1,2,1.7199232639231925,2,1
5,abstract,101,1,0.4591744023107076,0.4104671039772221,0.4431502885434389,0.2813427984934191,1,2,0.7303334421212639,1,1,2,1,1.2599169415743745,1,1
5,abstract,102,1,0.4518521589631706,0.42351861064585256,0.4820042999740157,0.29591736338177616,2,1,0.6165489438094482,1,1,2,1,0.6518100510879776,1,0
5,abstract,103,1,0.4668822471680648,0.3879235327639623,0.4744799670697093,0.3035182733687843,1,2,0.6128314750508252,2,2,2,1,0.9156282856702092,2,1
5,abstract,104,1,0.4836323770712854,0.3942634577200869,0.4536719730748922,0.2861520376977231,1,2,0.5931658965637325,2,2,2,1,0.6180496729284641,2,0
5,abstract,105,0,0.5085780734253756,0.4269111854627736,0.4638937683475123,0.264541140936418,1,2,0.6957681548296932,2,1,1,2,1.728410519930094,2,1
5,abstract,106,1,0.4928218111541474,0.4609342753453933,0.4126532043878528,0.2668765022283877,1,2,0.6573395447844632,2,2,1,2,0.5868456572425202,2,0
5,abstract,107,1,0.4858254070520887,0.4643721968165139,0.4259387603944354,0.2818836449636521,1,2,0.6951886564165761,1,1,2,1,0.8614805928305032,2,1
5,abstract,108,1,0.4681262878389583,0.4396113394159935,0.4415887345270013,0.27387787534341745,1,2,0.8930516543132399,1,1,2,1,0.7519680495370267,2,0
5,abstract,109,1,0.4542567319551307,0.3963876862624258,0.4580897581361625,0.2675211359594305,1,2,0.4974681976509601,2,2,1,2,0.9058087558805709,1,1
5,abstract,110,1,0.4723972578749401,0.3806660236292769,0.4681651395974531,0.2627121434885442,2,1,0.956905870230912,2,2,2,1,0.9632514230561356,1,0
5,abstract,111,1,0.4754021284242507,0.3915005414493681,0.4767804531856564,0.2537234765855829,1,2,0.7213272592980502,2,2,2,1,1.3050231934976182,2,1
5,abstract,112,0,0.4675299457440536,0.3667488677946869,0.4655410744906301,0.2558637448660523,2,1,0.7514144673305054,2,1,1,2,1.8809445673459777,2,1
5,abstract,113,0,0.4858366549123327,0.32670803890515665,0.4365760001919654,0.29917465623098066,2,1,0.7549698091270329,2,1,1,2,0.8920050614951833,2,0
5,abstract,114,0,0.4615806581044828,0.29951525887204555,0.472293104547984,0.3394941340119253,2,1,0.8171671959898958,2,1,1,2,1.3471008655715195,1,0
5,abstract,115,1,0.4564166816676156,0.312301255237323,0.4952688169894022,0.3417741218585075,2,1,0.7301297286903718,2,2,1,2,0.8110464511819373,2,0
5,abstract,116,0,0.4740931391809884,0.3122107429241705,0.4734951910792464,0.2722915487824198,2,1,0.6928872370826866,2,1,1,2,1.475858301036169,1,0
5,abstract,117,1,0.4568158194027854,0.31870963259482243,0.4851342248660103,0.3141579393597185,2,1,0.7241033068175966,2,2,1,2,0.7901866177753618,2,0
5,abstract,118,1,0.4225667381368068,0.2960202749912484,0.4518383549417013,0.3201069118913006,2,1,0.6417910267855405,1,1,2,1,0.9650631466429332,2,1
5,abstract,119,1,0.4349176381856121,0.2808597874122873,0.4316935729666147,0.3276709406621952,1,2,0.8896786300092572,1,1,2,1,0.7500369908630091,2,0
5,abstract,120,0,0.44717496294572107,0.2860000184938247,0.4319601001639639,0.31111609578231625,1,2,0.6076726433657313,1,2,2,1,1.6007813434662241,2,0
5,abstract,121,0,0.4326079755609595,0.3063441507280294,0.4209277459283676,0.2791847275818173,2,1,0.8494298585428623,1,2,1,2,1.5382229378310512,1,0
5,abstract,122,0,0.416847209964601,0.2628666410399918,0.3924135523509079,0.3031229497796112,2,1,0.9792215314246278,1,2,1,2,1.1664368863539494,1,1
5,abstract,123,1,0.4254454007093029,0.3009204350734445,0.3887899054361592,0.3088703830647416,1,2,0.8275261444796342,1,1,1,2,0.6619357537256292,2,0
5,abstract,124,1,0.4163289991385999,0.30870416999852784,0.3808219762287419,0.3192958237827359,1,2,0.7496398099438011,2,2,2,1,1.022171313954459,1,0
5,abstract,125,1,0.3903188932112711,0.2759437171659385,0.4126102731690594,0.33265464528680083,1,2,0.7665145747014321,2,2,2,1,0.6847742593017756,1,0
5,abstract,126,0,0.34863375505392025,0.2802427682160748,0.4175104551533859,0.3042872552998384,2,1,0.8045683038171774,2,1,2,1,1.5040587490248072,2,1
5,abstract,127,0,0.3807175996924673,0.2631552126065686,0.3942256099108188,0.2788874959825172,1,2,0.6763807235256536,1,2,1,2,1.1939532670548942,1,0
5,abstract,128,0,0.3391136248443716,0.2586929562990425,0.4282579939470522,0.285646814899514,2,1,0.8103452068735351,1,2,2,1,1.060279888994046,2,0
5,abstract,129,1,0.35622580629180645,0.25393937469873684,0.4206615291240841,0.30015863450440944,2,1,0.8042021620749438,1,1,2,1,0.9888225815739132,2,0
5,abstract,130,0,0.3605023442266225,0.2612574546060511,0.4065731599164766,0.2889362866874574,1,2,0.8704017946065505,1,2,1,2,1.8193242680854385,2,0
5,abstract,131,1,0.3725485596709776,0.2549166737808164,0.417165619259144,0.2695427484418862,1,2,0.8456903911446716,1,1,1,2,1.016519471659194,2,0
5,abstract,132,1,0.346153388755756,0.2896366753293365,0.4214222792312169,0.2875120817555818,2,1,0.9722292788628693,2,2,1,2,1.360228930501762,1,1
5,abstract,133,1,0.3375748935164471,0.2729773852988053,0.4035313229130972,0.3036564296397397,1,2,0.7740055635467797,2,2,1,2,0.8371187567936431,1,0
5,abstract,134,1,0.34355499150104946,0.286655769591889,0.450151673913868,0.3132604922526329,1,2,0.7419981454841036,2,2,2,1,1.144866768101565,1,1
5,abstract,135,1,0.2689624791263441,0.2866546580153884,0.4539252410351454,0.2638688375371272,2,1,1.0450450776233993,2,2,1,2,0.817443535066559,1,0
5,abstract,136,1,0.2792345428653991,0.2683855725473978,0.4421238790792217,0.29759192418005753,1,2,0.7115658902957875,2,2,1,2,0.6691467872788053,1,1
5,abstract,137,1,0.2804900598350577,0.3021192261094014,0.4267118205654064,0.29359177150896354,2,1,0.7012705269162325,2,2,2,1,0.9633797986798528,1,0
5,abstract,138,1,0.2517765812133561,0.3500480058429729,0.4290508749329915,0.2532213052846519,1,2,0.7077890553446196,2,2,2,1,0.9300563798014992,1,1
5,abstract,139,0,0.25103913781474496,0.3318426180536567,0.4407294864830617,0.25872556143673164,2,1,0.8301292163932885,2,1,1,2,1.1999805929808645,2,1
5,abstract,140,1,0.2520773150759645,0.3212817546485276,0.4460713699685792,0.2606963603953673,2,1,0.7408047946182705,1,1,2,1,0.7298979895958837,2,0
5,abstract,141,1,0.2588766172442125,0.2715672890795935,0.4280008692246626,0.2673818509868093,2,1,1.4957294010619082,1,1,1,2,0.5006305774459179,2,0
5,abstract,142,0,0.2614958597527137,0.26931625208546417,0.4305303800294226,0.31323826313882097,1,2,1.039725625732899,2,1,2,1,1.4165129022021574,2,0
5,abstract,143,1,0.31124362597759997,0.2654494373587808,0.39245139272815294,0.28707512143446,2,1,1.1620917029867996,2,2,2,1,0.6851515510397803,2,0
5,abstract,144,0,0.2981486002668494,0.2766064324064729,0.3673037369390013,0.2533278785433133,1,2,0.8066319570316409,2,1,2,1,1.0211455143717103,2,1
5,abstract,145,1,0.2828160569326976,0.2727521264080464,0.4018087312930097,0.27874528072743465,2,1,0.8024187655028072,2,2,2,1,1.2666747428793317,2,0
5,abstract,146,1,0.26845324977407525,0.2601762198586801,0.4101890765295616,0.3237488997311359,2,1,0.8822277208773812,2,2,2,1,0.7170146218631999,1,1
5,abstract,147,1,0.29096873602043977,0.2972004906345548,0.4001282642715329,0.32136456618155385,1,2,0.8538829256503959,2,2,2,1,1.0107395550903675,1,1
5,abstract,148,1,0.2942949217003728,0.2998373503946149,0.4284338759134316,0.32003514381374343,2,1,0.7075422486886964,2,2,1,2,0.7232673585085649,2,1
5,abstract,149,0,0.25320934465676426,0.3029511162222673,0.4485958724980755,0.3167847812356226,1,2,0.6959091872040517,2,1,2,1,1.3321219013942027,2,1
6,abstract,0,0,0.6327661375703078,0.4788929114485621,0.4244072723646318,0.3111542778813426,1,2,1.0159143440041591,1,2,2,1,1.0711495634932362,1,0
6,abstract,1,1,0.6574861888454573,0.4627393759666578,0.3992791156427561,0.35030069708506884,1,2,0.7678084854401277,1,1,2,1,1.2938792607258165,2,0
6,abstract,2,1,0.6130114694424702,0.4756815478628709,0.4203266352677626,0.3315883352008031,1,2,0.6260783090594941,1,1,2,1,1.3644897073581888,1,1
6,abstract,3,0,0.6318743406690439,0.4656599098868108,0.3940709038998804,0.309898170934539,2,1,0.7655121911527658,1,2,1,2,1.2427285520991518,2,1
6,abstract,4,1,0.6435396703538465,0.4992580855868408,0.4018446910732323,0.2692687121688477,1,2,0.8349437528440831,2,2,1,2,1.2586543474396876,2,0
6,abstract,5,1,0.6218020866231786,0.5081237078853482,0.3973376620813032,0.26181222919455793,2,1,0.6809281006753736,1,1,2,1,1.1983925939987328,2,1
6,abstract,6,1,0.5733811840000105,0.5027088453167661,0.4089835309501765,0.28213197067405354,2,1,0.5978932554642142,1,1,1,2,0.7338884217949726,2,1
6,abstract,7,1,0.5962442340844119,0.4861564812114074,0.4168432246761857,0.28964340265098,2,1,0.5442853311394629,1,1,2,1,0.9054653009441154,2,1
6,abstract,8,1,0.628695622840028,0.5409995334932466,0.4081325283999653,0.27239198156363953,1,2,0.7104595903433619,1,1,1,2,0.8703500794060801,2,1
6,abstract,9,0,0.6217055786777892,0.5551594577641864,0.4373271583067629,0.25715559902816665,1,2,0.6542036951655064,1,2,2,1,1.5208564996880796,1,0
6,abstract,10,1,0.6464826554569933,0.5521661643933413,0.4036931896630132,0.29806837104711925,2,1,0.6954384505738744,1,1,1,2,0.925390023475302,2,1
6,abstract,11,1,0.6255535840508829,0.5788532816379521,0.4298331799879641,0.2896440473434461,2,1,0.5720554244680898,1,1,1,2,0.9068825544916308,2,1
6,abstract,12,0,0.6279347455774434,0.5677157967823836,0.4316777864986787,0.29176604880552826,1,2,0.7775038497584319,1,2,1,2,1.032287645514998,2,0
6,abstract,13,1,0.56578926427991,0.5994877212445824,0.4369266019828883,0.2958854686584703,2,1,0.6759790139194592,1,1,1,2,0.6469435479252752,2,1
6,abstract,14,1,0.5514628645219206,0.6067755343559221,0.4824166208734782,0.2693729879266764,2,1,0.5676397289046236,1,1,1,2,0.7070269015998747,2,0
6,abstract,15,0,0.582636052440009,0.6215519548564541,0.44548658419542586,0.2590652377593741,1,2,0.6678892474965323,1,2,2,1,1.424866576864133,2,0
6,abstract,16,0,0.5874964271595261,0.6393964464923857,0.5110693558857651,0.2639794150434872,1,2,0.6685799438885169,1,2,2,1,1.0453002811605074,2,0
6,abstract,17,1,0.6008074720884127,0.6277222177905633,0.503607577712105,0.2788973565500789,1,2,0.6198147294321643,1,1,2,1,0.77292301387115,2,0
6,abstract,18,1,0.6456404148970845,0.6872574632758051,0.5112957232868882,0.30399887026988304,2,1,0.7604953004320123,1,1,1,2,0.7127661305632955,2,0
6,abstract,19,1,0.6748047157508733,0.6613919963731874,0.4887670011624563,0.2943647788948716,1,2,0.7275805435767779,1,1,2,1,0.708196444661553,2,0
6,abstract,20,0,0.6675601581283299,0.6355291854982432,0.506712662705531,0.34214864693567204,1,2,0.6735377698221328,1,2,2,1,1.1601285563178865,1,0
6,abstract,21,0,0.7444427721999044,0.6644889199226128,0.4437953091799445,0.3837972352242785,1,2,0.6318841365844037,1,2,1,2,1.327265029125556,1,0
6,abstract,22,1,0.7322579657160095,0.6520419673540405,0.4436862484911268,0.3778789374562073,1,2,0.7299627228867394,2,2,1,2,1.2018240773386424,2,0
6,abstract,23,1,0.7373650389680421,0.6221717432781864,0.4119496782341785,0.3723292545096695,1,2,0.6070639677677718,2,2,2,1,1.1430356287232826,1,1
6,abstract,24,0,0.7271382640947861,0.6592465876744126,0.4370761317924747,0.3832470993511824,1,2,0.6559207929144577,2,1,1,2,1.6837915374621844,2,0
6,abstract,25,0,0.7011766411648914,0.6834837133760486,0.4137631532811723,0.3668923994211113,2,1,0.8938840823407191,1,2,2,1,1.1181178221972914,1,1
6,abstract,26,1,0.6881674786894119,0.7169602876557335,0.38345378821861853,0.361707161232196,2,1,0.6786173415421217,1,1,2,1,0.8851837788811281,1,1
6,abstract,27,0,0.7208572773344101,0.7176737146825349,0.3740276145168866,0.3605987953574867,1,2,0.6836390538783235,1,2,2,1,1.1941103969097642,1,0
6,abstract,28,1,0.6825751625503045,0.6834662794006232,0.3746898265870003,0.3538160803862045,1,2,0.6004800520736353,1,1,2,1,0.7227119175263397,1,1
6,abstract,29,1,0.6574228596142664,0.6494436757856676,0.37746100991131415,0.3492112507001865,2,1,0.7368142382301812,1,1,1,2,0.8162810881181031,1,1
6,abstract,30,1,0.6536504957531064,0.6431303249651594,0.3744595441112173,0.3446437309812973,1,2,0.7201664059980429,1,1,1,2,0.6510346885083891,1,0
6,abstract,31,1,0.6159533789796129,0.6101464902048774,0.3596059448312077,0.3642631754831568,2,1,0.6252824411840265,1,1,1,2,0.6024047806313321,1,1
6,abstract,32,1,0.5888152026486733,0.6267364244905645,0.36628493677803736,0.3813169385230292,1,2,0.6985179559965218,1,1,1,2,0.5688385030089194,1,0
6,abstract,33,0,0.5895005561606851,0.6425673312447766,0.3999619353420772,0.4148549445621738,1,2,0.6060547434144611,1,2,2,1,1.0250778238846578,1,0
6,abstract,34,0,0.5781220516999517,0.6732953324775443,0.3880604573991595,0.4147607182110864,1,2,0.5107018765124849,1,2,2,1,0.749808190116255,1,0
6,abstract,35,1,0.5687739559519676,0.6693537124338567,0.3425904347744222,0.4107203295475976,2,1,0.692782644595809,1,1,2,1,0.7610078984084794,1,0
6,abstract,36,0,0.6020727282400568,0.7171283891048041,0.3575462695688896,0.4022922312512432,2,1,0.6480546289012636,1,2,2,1,1.1051329108395294,2,0
6,abstract,37,1,0.6365435396799144,0.7048771499152178,0.33693204648461483,0.4182990277064769,2,1,0.5953576885176517,1,1,1,2,0.8346240194791791,1,1
6,abstract,38,1,0.631295038753469,0.6887824841883654,0.3351382895285582,0.4307968522717884,1,2,0.6730116110520612,1,1,1,2,0.6155485039430459,1,1
6,abstract,39,0,0.6386070804653854,0.6680205420719028,0.2982442666106939,0.4482627565425797,2,1,0.6298024041780081,1,2,2,1,0.8726029791559995,1,0
6,abstract,40,0,0.6464668134587077,0.6186104350822459,0.2804136085857154,0.4515394519969235,1,2,0.6805218795861947,1,2,1,2,1.028733512335748,1,0
6,abstract,41,1,0.6273158777533747,0.6313846144977441,0.28921714289521805,0.4547421848830569,1,2,0.7149759371263826,1,1,1,2,0.722955409099086,1,1
6,abstract,42,1,0.6621086297985117,0.6216880322678977,0.3147312148930866,0.44395008621772747,2,1,0.6090338989693009,1,1,1,2,0.6261108549629171,1,0
6,abstract,43,0,0.6352698005405002,0.6146932958882503,0.3138458494336083,0.4476763078698252,1,2,0.7188654739197773,1,2,2,1,0.8900704859884172,1,0
6,abstract,44,1,0.6066627221618992,0.624911770946353,0.2995504211692963,0.4465927318112621,2,1,0.7861499100467881,1,1,2,1,0.7390273596533916,1,1
6,abstract,45,1,0.6017837258904903,0.5989350494603038,0.2730297553156604,0.4414995152150354,2,1,0.6219754157887111,1,1,2,1,0.7881716736128509,1,0
6,abstract,46,1,0.6083240035662346,0.6045611616906444,0.32392168161256096,0.4246942513900789,1,2,0.8286325597655377,1,1,1,2,0.6839693345264095,1,1
6,abstract,47,1,0.5709108437284245,0.5921355831303075,0.3393247975837965,0.4273618395127683,2,1,0.7421574920367675,1,1,2,1,0.6461205584637355,1,0
6,abstract,48,1,0.5688416324071235,0.5809167540615434,0.34897820867899565,0.410802308649548,1,2,0.8198020726918003,1,1,2,1,0.6152233462612458,1,1
6,abstract,49,0,0.5415265793251702,0.5853087634087653,0.3301337925953152,0.4220303629905693,2,1,0.7400142840351691,1,2,2,1,0.9440837273496072,1,0
6,abstract,50,1,0.5026847388364384,0.5816185709979564,0.3310698000047379,0.42895016464267105,1,2,0.9123361027482132,1,1,1,2,0.7996534464004981,1,1
6,abstract,51,0,0.4531905712407522,0.594473242987935,0.3205779469542072,0.44340954261488497,2,1,0.8519640548579446,1,2,2,1,0.8991143295393158,1,0
6,abstract,52,0,0.4745172279270717,0.5980286386915896,0.3204733864816034,0.4768745048944867,1,2,0.671961704320438,1,2,1,2,0.905235972866194,2,1
6,abstract,53,1,0.5005674298859215,0.6262397586082192,0.2710704466830518,0.4460151516669608,2,1,0.6455145416903179,1,1,2,1,0.9817354198871726,1,0
6,abstract,54,1,0.5021007146195223,0.6033081166260552,0.3134230850927017,0.4445033987360541,1,2,0.819051708810548,1,1,2,1,0.7633355331950042,1,0
6,abstract,55,1,0.5169794470344231,0.6217628331611155,0.3630966816139685,0.4083654761065081,1,2,0.8820786586265967,1,1,1,2,0.8212208329941859,2,1
6,abstract,56,1,0.5183911682548237,0.6159849236897585,0.3916651754992023,0.3870838882065517,1,2,0.8324108980564233,1,1,1,2,0.6748314694777946,2,0
6,abstract,57,1,0.5261556484868112,0.6423921339971341,0.3988129239313007,0.4142226700626437,2,1,0.6816998604745095,1,1,1,2,0.6572762695163874,2,1
6,abstract,58,1,0.5042966793176669,0.6583184467122694,0.3738137845344538,0.4598890719447816,2,1,0.6510738641331955,1,1,2,1,0.8610955915369232,2,1
6,abstract,59,1,0.5017650786795516,0.6986665742773966,0.3755558277378772,0.4270654458450576,1,2,0.7272297710637758,1,1,1,2,0.8353746847114962,2,1
6,abstract,60,1,0.5243207395559575,0.6919744799768761,0.39149922623402783,0.41121085389056333,2,1,1.0116484198661055,1,1,2,1,0.8064061186296385,2,1
6,abstract,61,0,0.5302928955357837,0.6624301905363681,0.4338887571775048,0.3235184141669916,2,1,0.6069374003659505,1,2,1,2,1.404016706897437,2,0
6,abstract,62,0,0.528077823215721,0.6689829309867583,0.43808413819700376,0.32931321868355296,1,2,0.7896404581742901,1,2,1,2,0.9057211479062062,2,1
6,abstract,63,0,0.5515621130599875,0.6429105549140766,0.3926507931521504,0.30832565033626946,1,2,0.7373256308028431,1,2,1,2,0.7742441364639491,2,1
6,abstract,64,1,0.5289804725641825,0.6785254124841149,0.4167641872322108,0.3093626986241836,2,1,0.6460599869215002,1,1,1,2,0.9341909781551294,2,1
6,abstract,65,1,0.4932507371168136,0.6962675140743858,0.4162725246036607,0.34943643503275623,1,2,0.8473717676342858,1,1,1,2,0.6490514978650026,2,1
6,abstract,66,1,0.4923940759995549,0.7070588497204061,0.3876287086793155,0.3656517314183069,2,1,0.6734383240063835,1,1,2,1,0.7931385400752333,2,0
6,abstract,67,1,0.5029560555309123,0.6966580477015027,0.3783667796130872,0.39376336169380216,1,2,0.7482477948647102,1,1,1,2,0.6171049816325649,2,1
6,abstract,68,1,0.5063307903448933,0.6793632755529893,0.3514708243177469,0.42711749407845656,2,1,0.6239688523651239,1,1,2,1,0.7224723435160741,2,0
6,abstract,69,1,0.518772989692318,0.7100767209942666,0.3584342171535904,0.4210963685088776,2,1,0.6481775800912146,1,1,1,2,0.6563345477775329,2,1
6,abstract,70,1,0.4961601994489047,0.7480057654324618,0.3793916728986281,0.4085800228682837,1,2,0.8044009293662384,1,1,2,1,0.679209194820487,2,0
6,abstract,71,1,0.5063325560743724,0.7460635639404989,0.3785025234378288,0.3959236755102489,1,2,0.8243518694307568,1,1,1,2,0.7138672669575499,2,1
6,abstract,72,1,0.5195837343308025,0.7118127404306063,0.3618180082918021,0.4137566830908375,2,1,0.7500634343759884,1,1,2,1,0.7807159496023814,2,0
6,abstract,73,1,0.5473342864874898,0.6810482302582554,0.36558215639761577,0.4235083930030127,2,1,0.6645752910299052,1,1,2,1,0.771054336591078,2,0
6,abstract,74,1,0.534815369071775,0.7207154169878993,0.35906186367567416,0.4281930562967207,1,2,0.7230111590256456,1,1,1,2,0.9560341008741488,1,1
6,abstract,75,0,0.5344332328745236,0.7467914675401416,0.3616858398177992,0.4248952315185597,1,2,0.7172276314718147,1,2,1,2,1.0439619815629158,2,0
6,abstract,76,1,0.5028083787109101,0.7318393219833685,0.3690237933144019,0.42209253245714573,1,2,0.8201103547198727,1,1,2,1,0.7803663824925025,1,1
6,abstract,77,1,0.5358275388774253,0.7298973377325804,0.3679933315612531,0.4238179284664366,1,2,0.8059097936047692,1,1,1,2,0.8390855203879255,1,0
6,abstract,78,0,0.5175674135228471,0.7483306822874101,0.3994170363001665,0.4364998865468316,1,2,0.7751475866307374,1,2,2,1,0.9727973505223416,2,1
6,abstract,79,0,0.5500815944024805,0.7406523517529731,0.4183881726606184,0.4549737797576778,2,1,0.6341569254973365,1,2,2,1,0.8438420438828871,2,0
6,abstract,80,0,0.5193503879256081,0.744538283941114,0.4282377947975522,0.47042320824920797,2,1,0.7939958835459038,1,2,1,2,1.3813168434089675,1,1
6,abstract,81,1,0.5395611495498249,0.7392023808835102,0.4230123343972698,0.4970659166165362,1,2,0.8710609663121431,2,2,2,1,1.1991655592019017,1,0
6,abstract,82,1,0.5736306328990955,0.7359937643077092,0.4370940814774459,0.4950459661370874,2,1,0.9636582800694669,2,2,1,2,1.2232733343576,1,0
6,abstract,83,1,0.5460330060400369,0.7488425636456094,0.4405937188674631,0.46875105358239205,1,2,0.7639240716130189,1,1,2,1,1.1079698287421706,1,1
6,abstract,84,0,0.5326067897062088,0.7493306578820391,0.4180252468891752,0.4922055679324245,2,1,0.7890467967899895,1,2,2,1,1.4648751352310685,2,1
6,abstract,85,1,0.5324210613781744,0.7432308360921247,0.42271065001354224,0.482352760077901,2,1,0.6361922498563217,1,1,2,1,1.0730092002445415,1,0
6,abstract,86,0,0.5073286261283991,0.7465451837163835,0.4581631281801357,0.41316986729159794,1,2,0.7501704139658614,1,2,1,2,1.373960263862955,2,1
6,abstract,87,1,0.5121081480750335,0.7271172084560382,0.4546984029830536,0.3879629812979848,1,2,0.5919436835333727,1,1,1,2,0.9461567205785286,2,1
6,abstract,88,1,0.5399821927017313,0.7493485662868175,0.4415697544242863,0.3961668186118232,1,2,0.6531830194767281,1,1,1,2,0.6264986936434979,2,1
6,abstract,89,1,0.5221168995989056,0.7448013913613396,0.4422924781698107,0.4346786098452323,2,1,0.8124545336745541,1,1,1,2,0.6791281314131083,2,1
6,abstract,90,1,0.5085132792945066,0.7025878934855867,0.4654919822021476,0.4492873937406129,2,1,0.6464342648091588,1,1,2,1,0.7658626623151576,2,1
6,abstract,91,1,0.5091992763795288,0.7270547581313664,0.4661929921820971,0.4360880915853438,2,1,0.8097508128944355,1,1,1,2,0.7596708042156024,2,0
6,abstract,92,1,0.5271240167176059,0.719018129582857,0.4786882528382956,0.3962275907188149,1,2,0.7952600508078831,1,1,2,1,0.7182962219631008,2,0
6,abstract,93,0,0.5216332541385249,0.6850840579368056,0.521134003597427,0.34835133932277884,2,1,0.6450679395729821,1,2,1,2,1.0252495939294022,2,1
6,abstract,94,1,0.5143200221202788,0.6637018084883688,0.502433079849911,0.4245051180293528,2,1,0.6984112777581686,1,1,1,2,1.2045027859894617,1,1
6,abstract,95,1,0.5028406448607838,0.6422786812249006,0.4803931725795987,0.40665040970760624,2,1,0.6494751973095845,1,1,1,2,0.719895792839452,1,0
6,abstract,96,0,0.5369867866944997,0.6241239982723066,0.5142848105640471,0.4086798397140254,1,2,0.7551191993707107,1,2,2,1,0.8429310599417477,2,0
