trial,common,reward.1.1,reward.1.2,reward.2.1,reward.2.2,isymbol_lft,isymbol_rgt,rt1,choice1,final_state,fsymbol_lft,fsymbol_rgt,rt2,choice2,reward,slow
0,1,0.3359744568670108,0.28551925379371335,0.395372514887529,0.389072706086864,2,1,1.149651879168232,2,2,2,1,0.6814489444877836,2,1,0
1,1,0.36171207654476495,0.26821111093904104,0.39739508564882375,0.35301337241007547,2,1,0.7824522026930936,2,2,1,2,0.9210026072905748,2,1,0
2,0,0.32848085762790813,0.29940890707401796,0.3932214988170939,0.3502170481163991,2,1,0.8972817524663697,2,1,1,2,1.2599141510872869,1,0,0
3,1,0.3474356982454597,0.3090627930848777,0.44526197038895793,0.3716625925924586,2,1,0.7174655284434266,2,2,2,1,1.2270397554493684,2,0,0
4,1,0.34981133849422774,0.35499600535089987,0.49104405268796186,0.3869041797567045,1,2,0.7237770266765438,2,2,1,2,0.8296431881972239,2,1,0
5,1,0.3820992840369927,0.3900040678042474,0.5044685722327087,0.3922088170575557,1,2,0.8001086672229576,2,2,1,2,0.8652107589587104,2,0,0
6,1,0.40944251444937174,0.3568004247894683,0.525300284337408,0.3905950127173574,1,2,0.6430152230532258,2,2,2,1,0.9422734773615957,1,1,0
7,1,0.4784402563953674,0.40243724412215326,0.5084165391652835,0.38913607326508215,1,2,0.8965359083995281,2,2,2,1,1.1723803846907686,1,1,0
8,0,0.4629048807255869,0.3979679898111115,0.49831075793439883,0.4048533023368044,1,2,0.8281936892235535,2,1,2,1,1.2040011595963733,1,0,0
9,1,0.47744776239557085,0.4047262044395802,0.510529275329339,0.40304999039091993,1,2,0.7989065775327617,2,2,2,1,1.1551795630875858,1,1,0
10,1,0.469247109828145,0.4037245490323862,0.5022984254701601,0.3555247183140211,1,2,0.7683471613345318,2,2,2,1,1.2819763692459674,1,0,0
11,1,0.4791618416485277,0.425693319846185,0.5317397971283019,0.36247166947080545,1,2,0.7189653530549549,1,1,1,2,0.8599142113562266,2,1,0
12,1,0.4939895975913724,0.47602465965311436,0.5408107713058767,0.3603307860055476,2,1,1.1147900727701199,1,1,2,1,1.0941231103788596,2,1,0
13,1,0.5084952719538931,0.45986205431076943,0.5646954204679054,0.33920352241799145,1,2,1.027285537435091,1,1,2,1,0.8498900671038427,2,0,0
14,1,0.5286987840766543,0.49806889150313,0.585025548134382,0.36136011690621184,1,2,0.7752227888959169,1,1,1,2,0.8245747634100553,1,1,0
15,1,0.5530251214535087,0.4679612544639973,0.5589534063880608,0.35973333623991666,1,2,0.7675069943579729,1,1,1,2,0.9800056533495081,1,1,0
16,1,0.5229392196936877,0.4906466124376108,0.5636234501559756,0.3615570794966073,1,2,0.6550096010469133,1,1,1,2,0.7943293550961243,1,0,0
17,0,0.5309592570231702,0.5520809027134128,0.5862611988471665,0.36310271007613165,2,1,1.0252131456618372,2,1,1,2,1.1793979486428725,2,1,0
18,0,0.5342115009915775,0.5543164208847522,0.5778362546965821,0.3716235005755387,2,1,1.226837247482763,1,2,2,1,1.0812162411384634,1,1,0
19,1,0.5362983504203537,0.5482782654761724,0.5548295254774307,0.354997029668638,1,2,1.0412218221608782,2,2,2,1,0.870308716159343,1,1,0
20,1,0.5025539917322597,0.6147936516718365,0.58627242954424,0.3589796759913385,1,2,0.6477569832095469,2,2,2,1,0.8450331908134103,1,1,0
21,1,0.5180231890222496,0.6440147591742045,0.5759369465380502,0.3574434624096092,1,2,1.223880992820341,2,2,1,2,1.0692990090356034,1,0,0
22,1,0.5205241298424604,0.661907420179373,0.5562213647482825,0.3592789706238828,1,2,1.0466268561722245,1,1,2,1,1.2906953617239196,2,0,0
23,1,0.5159274659980839,0.6742587073658265,0.5856037184885076,0.36647963592282645,1,2,1.0130605583181023,1,1,1,2,0.8692304817886907,1,0,0
24,1,0.5558224322970646,0.6943900745835305,0.565327503427282,0.4023377283322583,2,1,1.2908195183917996,2,2,2,1,1.1451846498966916,2,1,0
25,1,0.5375330397562426,0.7123242717948716,0.5742319081767728,0.35949551038571514,1,2,0.8653816250553064,2,2,1,2,1.1424399437346437,2,0,0
26,1,0.5986357926870393,0.6885164513252904,0.5625829070157087,0.3659941975159421,2,1,1.1021740073774708,1,1,1,2,0.9981921945254726,2,1,0
27,1,0.6059807935634495,0.6779125036050875,0.5175009296777131,0.37687723159646624,2,1,1.4086062268761452,1,1,1,2,0.9043556690776313,2,0,0
28,1,0.5920872231474947,0.6938753800451339,0.5109564125225377,0.341804002494714,2,1,0.9700137536638067,1,1,2,1,1.675491835194407,1,0,0
29,1,0.5573916292509855,0.6849329009574001,0.49316194800364244,0.2938887003357713,1,2,1.3288961387297604,2,2,1,2,1.0540419022763672,1,0,0
30,1,0.5620715937102279,0.6813868162338905,0.4791105274564751,0.33137718910533326,2,1,1.000049722937547,1,1,2,1,0.8128494919801597,2,1,0
31,0,0.5360135642756951,0.7103111392518949,0.5065704487791495,0.2941055774926149,1,2,0.9647364925403963,1,2,1,2,0.9500793758888904,2,0,0
32,1,0.551409024572953,0.704624437218853,0.5474083817832296,0.2552097488224985,1,2,1.0676048129389528,1,1,2,1,0.86069561486147,2,1,0
33,1,0.5197006401312843,0.7195890639649464,0.5151477229560681,0.3060878332711596,1,2,0.7564052184388856,1,1,1,2,0.7728662229965266,2,0,0
34,1,0.5551430137064645,0.6870408313741709,0.5158894269621626,0.25662210214828685,2,1,0.8402209144915105,1,1,1,2,0.9781713289703475,1,0,0
35,1,0.5736221695762646,0.6828568341893804,0.4878522410246344,0.253370349729237,2,1,0.8744860456354218,2,2,1,2,1.2873286668109358,1,0,0
36,1,0.5576232168424551,0.6860992958901007,0.5141268341456543,0.2838528247436189,2,1,0.8334414179407759,2,2,2,1,1.759722491766297,2,0,0
37,1,0.5921139175417394,0.6730805372925754,0.4924312897388812,0.28882799505114937,2,1,1.0178704238314822,1,1,1,2,1.2441019555262756,1,1,0
38,1,0.6093665288692629,0.6779803748083048,0.5172697031253976,0.2884420706599693,1,2,0.8570185282733291,1,1,2,1,0.7587687154118612,1,0,0
39,1,0.6046481897013638,0.6364656786552607,0.5623849902856263,0.27143825262032095,2,1,0.6434862348833121,1,1,2,1,0.7923862429597648,2,1,0
40,1,0.6528448749608835,0.6342349272629415,0.5641410005654577,0.29013901888982735,2,1,0.7451880250264367,1,1,2,1,0.9663451049127616,2,0,0
41,1,0.6725065704523474,0.660274614685406,0.5796615735880422,0.292362475947327,2,1,0.9670707584518823,2,2,1,2,0.8094264444080181,1,0,0
42,1,0.7038879842950906,0.6235081952001806,0.6023296894036723,0.2791262013073035,1,2,0.8556543116719695,2,2,1,2,1.18600718180096,2,0,0
43,1,0.7429731131963975,0.6293340609827945,0.5886491220363759,0.2953332464560193,2,1,1.2546561764320359,1,1,1,2,0.9862294584017945,1,1,0
44,1,0.7018655314999798,0.6389319384909633,0.5988312901934,0.2927288967405488,2,1,0.9895057479698153,1,1,1,2,0.7483139403811947,1,1,0
45,1,0.6918583375091873,0.6347374359621856,0.5571451765330835,0.31312373181332304,2,1,0.8608381539452239,1,1,2,1,1.0495261554715398,1,0,0
46,1,0.7065799115938963,0.6027191181203189,0.5178535033672107,0.2938223601902219,2,1,0.91794750945337,1,1,2,1,0.7023862188507337,2,0,0
47,1,0.6845648999030525,0.6075378037554707,0.5480202983793718,0.34684786991901534,2,1,0.7568240965192672,2,2,1,2,0.9691060840377759,1,1,0
48,1,0.7019902007093368,0.6431641160062954,0.5688622160497017,0.3560577743076767,2,1,0.6551542495908507,2,2,1,2,0.7032176466382225,1,0,0
49,0,0.7488473331733452,0.6383350044174534,0.586710359261804,0.3098730575600499,1,2,0.9010829957187525,2,1,2,1,1.435962883184402,1,1,0
50,1,0.7485114045710466,0.5985558830851576,0.5719347356067344,0.3152190702992308,1,2,0.5629221176059218,1,1,2,1,0.7440588623139774,2,1,0
51,0,0.7338496301553923,0.5953433292668588,0.551687311634731,0.332398716112405,2,1,0.8116495117537852,1,2,1,2,0.7482431228672795,1,0,0
52,1,0.7021678986330928,0.5865519252299147,0.5892609043311674,0.2939393069891745,1,2,0.7842554879025556,1,1,1,2,1.0040965673724713,2,0,0
53,1,0.7078181416813327,0.6134003432710635,0.5510299760421842,0.2693598610434371,2,1,0.6683585524042428,1,1,2,1,1.2011353102789144,1,1,0
54,1,0.7367928019123391,0.6061297142950832,0.5863452532224319,0.26666110808059873,2,1,0.823354592652322,1,1,2,1,0.795897586416686,1,0,0
55,1,0.7406690182212513,0.6029234590045003,0.6357651514206971,0.274046985487928,1,2,0.9572967356434674,2,2,2,1,1.2602637184063497,2,0,0
56,0,0.7356115194720383,0.5663354722577334,0.5995068008743822,0.3001969663616392,1,2,1.012570561368193,2,1,2,1,1.5170926365462947,1,1,0
57,1,0.7296075574849266,0.5373356702042487,0.653705219571363,0.29839229167045356,1,2,0.9313826472352957,1,1,1,2,0.9311973162875802,1,0,0
58,1,0.7442167049302344,0.5480177999105069,0.6877756816432662,0.2884287788285276,2,1,1.0234891157961101,1,1,2,1,1.1761367266262823,2,1,0
59,1,0.7382404157552789,0.5453805980057158,0.672440687532667,0.28760181255657535,2,1,0.7242408060774324,1,1,1,2,1.040061318926746,2,1,0
60,1,0.7087129756699686,0.5382388942774434,0.6791337425032635,0.2691141778167856,2,1,0.6404908045733464,1,1,2,1,0.8462627034568868,2,0,0
61,1,0.7000071270080122,0.5611101469270612,0.7038773658177134,0.28916297343379554,1,2,0.9471963495525415,2,2,1,2,0.727379980882688,1,1,0
62,1,0.6986424107170239,0.5870824314311526,0.7219126623143662,0.2973062672144052,1,2,0.8892664148988842,2,2,1,2,0.943912224851374,1,1,0
63,0,0.7070961913935194,0.597101365668724,0.7372793254317969,0.29545552237642503,2,1,0.9153977774767554,2,1,2,1,1.565480890119943,1,1,0
64,1,0.6692131770772631,0.6077521368959523,0.7247082512148663,0.3227643312590375,2,1,1.2912570802436676,1,1,1,2,0.6064387286860438,1,1,0
65,1,0.6775888979613116,0.5973787811065807,0.7164564952048709,0.3405271840273903,2,1,1.0361428500800685,2,2,1,2,0.8095352321688551,1,1,0
66,1,0.6594061670636009,0.6054277154279719,0.7465041018788879,0.365287433825412,2,1,1.0564319181467,1,1,2,1,0.6329708882731211,2,0,0
67,1,0.6610304449716987,0.5871926516033554,0.7197475348849942,0.3732810940677376,2,1,1.2797680681069323,1,1,1,2,1.00326724903789,1,1,0
68,1,0.6703360072455931,0.5644085117855702,0.7078855390870908,0.3382405529885757,1,2,1.1261913917260244,2,2,1,2,0.8101710830669617,1,1,0
69,1,0.7179032955797648,0.5502059699195219,0.7224496841975796,0.3392811983228785,1,2,1.1737693120849144,1,1,2,1,0.7473309329689073,1,1,0
70,1,0.6984705757201031,0.5675711159919827,0.7380696616019978,0.3530280156653856,2,1,1.4441364300982968,2,2,1,2,0.9212593584597926,1,1,0
71,0,0.7385311952962129,0.5248782585495606,0.7315244805508301,0.3950582038035928,2,1,1.3941790411481634,1,2,1,2,1.4191836518220953,1,1,0
72,0,0.745325872311828,0.5182092270167491,0.7447764709870454,0.35957895961919606,2,1,1.5391446087669465,1,2,2,1,1.2890746953016787,1,1,0
73,0,0.7388965825369511,0.517186416324213,0.744643108882627,0.3782650449888601,2,1,0.9400278086832259,1,2,1,2,1.0973668540282233,1,1,0
74,0,0.7235417383595316,0.49435173578088243,0.7297083318350204,0.3608343063867534,1,2,0.7233530256271479,1,2,1,2,0.7220331076423463,1,0,0
75,1,0.7417509811023759,0.5005826871565653,0.7204281868041155,0.37565193913816036,1,2,0.7565001440489141,1,1,1,2,1.158909687474079,1,0,0
76,1,0.7491707741903527,0.5260265854846622,0.7267672060048258,0.39868145577578096,2,1,0.698815509218548,1,1,2,1,1.3399481917113008,2,0,0
77,1,0.6946451686981501,0.541006876149352,0.7454023903858029,0.33873208671493393,2,1,1.5304825716593768,2,2,1,2,1.411912651565217,2,0,0
78,0,0.7260237914219845,0.5571039080085948,0.7414157691544092,0.3705695434527265,1,2,0.6682856254301441,2,1,2,1,1.16909565728929,1,1,0
79,1,0.705658571563019,0.5341210130118814,0.7362560754692866,0.36137320744833046,1,2,0.9299675022921292,2,2,1,2,0.9221839037527388,1,1,0
80,1,0.6991501545179972,0.5256197962713065,0.7184346823470933,0.35499683998098375,2,1,0.8724543362623081,1,1,1,2,1.5788867968403792,1,1,0
81,1,0.7132984320310679,0.49880280288009415,0.7430436516282428,0.32082078273135095,2,1,1.163157231763762,2,2,1,2,0.8651565157560981,1,1,0
82,1,0.6850371583141359,0.49949145758494307,0.7219726043597289,0.32888344258661795,2,1,1.0105493992887205,1,1,1,2,1.040340972787817,1,0,0
83,0,0.6698691021674912,0.5140658407158414,0.6844552351859319,0.31591971129426044,2,1,0.7110901437699795,2,1,2,1,1.2132734327606158,2,0,0
84,0,0.6527266625022345,0.5414216456667493,0.704824455637632,0.3524417597408095,1,2,1.0170169974080636,2,1,1,2,1.5192029985628324,1,1,0
85,1,0.6182982885216686,0.5245399720431583,0.7416200271036298,0.41601350529659115,2,1,0.7864291336627502,2,2,2,1,0.9766853665096278,1,0,0
86,1,0.6145842925054343,0.47515644596951434,0.7321619606654048,0.40876961802403566,1,2,0.9196525541919982,1,1,2,1,0.712302479394566,1,1,0
87,0,0.5980710891982022,0.4491264686444536,0.7202604741837761,0.41803562171552433,1,2,0.8773714827802905,2,1,1,2,1.3851605056443077,1,0,0
88,1,0.5724296947817651,0.45387828500881633,0.7450423374774552,0.4623504058618924,1,2,0.7737518939939036,2,2,2,1,1.0694924764648022,2,1,0
89,0,0.5395359787051628,0.47091342683067205,0.7460657913085185,0.4635337227713753,1,2,1.2608290531425155,1,2,1,2,1.6561007935197267,2,1,0
90,1,0.548113563406811,0.4891199837973997,0.7288488268052599,0.4746803659289368,1,2,0.6147319120027532,1,1,1,2,1.0797097868016863,2,1,0
91,1,0.5028689919554787,0.4775263010395461,0.7071818049147365,0.4849534527287079,2,1,1.3848850707036036,2,2,2,1,0.9000831126431876,2,0,0
92,1,0.5191141981658622,0.4951885705812445,0.6798708325377167,0.5397641974840076,1,2,1.037600485535222,1,1,1,2,1.0708160106660216,2,1,0
93,1,0.557676521930238,0.49472137405443894,0.7375123516954597,0.5258018012515064,2,1,1.081196954666666,2,2,2,1,0.9933844384686381,1,1,0
94,1,0.5814782140641229,0.449745757402638,0.7351671186465878,0.5185677507003508,2,1,0.7980676159604627,1,1,1,2,0.9811459660559194,2,1,0
95,0,0.5684768500079729,0.44583569232914666,0.7472637312888576,0.5519605296618686,2,1,1.056799566536938,2,1,1,2,1.4378716412902577,2,1,0
96,1,0.5626967088485766,0.46530409327303396,0.7499110461945055,0.5191245936158615,2,1,0.9572795586318534,2,2,1,2,0.8835226622104528,2,0,0
97,1,0.5441498259532977,0.5018469186206481,0.7046445920752473,0.5414873182402644,2,1,1.4063427784822125,1,1,2,1,0.8299119934126793,2,0,0
98,1,0.5313079211204448,0.458957850822594,0.7062068207735369,0.503415541618311,2,1,0.9115124572526838,2,2,1,2,1.0236681183778273,1,1,0
99,0,0.5373458353047134,0.48188435577335614,0.7014749743065947,0.5523228005344802,1,2,1.2452178587918752,1,2,2,1,1.2204205777015886,1,1,0
100,0,0.5035983919928393,0.41401692692160363,0.6838828624317248,0.5305428375329844,2,1,0.7923103024731972,2,1,1,2,0.7742879976685799,1,1,0
101,0,0.5267740861604138,0.4140299744915809,0.7166715705947708,0.5462815503523184,2,1,0.9108485806973476,2,1,1,2,0.720066188761848,1,1,0
102,0,0.4930675305821879,0.40827075573806804,0.7130964390385586,0.5763560195611318,2,1,0.6242024742132344,2,1,2,1,0.6713994867386646,1,1,0
103,1,0.4847951045417833,0.3920430445897902,0.6869865475970425,0.5870686867413892,1,2,0.6294592434642254,2,2,1,2,0.9721946318531991,1,0,0
104,1,0.4662566630340468,0.3861961162449936,0.6779678098774329,0.5964932493030809,2,1,0.9755658470312483,2,2,1,2,1.2424400039999455,2,1,0
105,1,0.41970301723364867,0.39781332884037224,0.6820357737738794,0.6092009579363225,2,1,0.7002821852074703,2,2,2,1,1.150597217685572,2,1,0
106,1,0.4275109089310118,0.3969932564676151,0.7069712767897024,0.6199999769072234,2,1,0.8540339466017031,2,2,2,1,1.052878988233715,2,1,0
107,1,0.4220160517948248,0.37821168800439153,0.6911257200169818,0.6058056309653437,2,1,0.7468472643959103,2,2,1,2,1.1390193069637462,2,1,0
108,1,0.40745152878977486,0.379007723059182,0.6608887793409637,0.5924476327089758,2,1,0.710281015963119,2,2,2,1,1.338524910286651,2,1,0
109,0,0.40475275950822676,0.3754741698492592,0.6786467744500685,0.6081982395381692,1,2,0.8990660525560088,2,1,2,1,1.1448986676659842,1,0,0
110,1,0.4467665228056226,0.40352430514243415,0.6705410925229178,0.5992693887533389,1,2,1.1772628758299106,1,1,1,2,0.9340936020744266,2,0,0
111,1,0.45245549420551184,0.44699843664587396,0.6220475994779999,0.6598936694741411,1,2,0.9588851574917499,2,2,2,1,1.3287309983024898,1,1,0
112,1,0.4871876110236178,0.4474349007640045,0.6535451952535664,0.6915833087926899,2,1,0.8670104279517545,1,1,1,2,0.9793414754385594,1,0,0
113,1,0.4717686729078088,0.46265139555912166,0.6529599359189413,0.6707070896269416,1,2,0.9293400892238424,2,2,2,1,0.72418897368334,1,0,0
114,1,0.45010361615263594,0.4366425987942424,0.70443079129849,0.6392802235775175,2,1,0.851732829312823,1,1,2,1,0.7902532796033483,2,1,0
115,1,0.44338216904929295,0.4735932918792747,0.6902677816144023,0.6362831122745314,1,2,0.672927638359397,2,2,1,2,1.1302150321171212,2,0,0
116,1,0.45935508074698567,0.45045479865989746,0.6785596701166199,0.6666910218475842,1,2,0.8910573447101342,1,1,2,1,0.9194220205718011,2,0,0
117,1,0.46551644585374313,0.42835946638029165,0.6693886995873592,0.6243979457564599,2,1,0.9571294857632893,2,2,2,1,0.8569974336969608,1,1,0
118,1,0.4797797155483621,0.39454520648556546,0.6582975677072369,0.6180936738991587,1,2,0.8702095716362237,1,1,1,2,1.5529217800940387,1,1,0
119,1,0.45710042173379817,0.3987907163471512,0.6992566632815042,0.620012063754693,1,2,0.7496835813035432,2,2,2,1,0.8889554205234163,1,1,0
120,0,0.4479404637790134,0.4387309558741063,0.716435622309751,0.6136069035922773,1,2,0.7658905468560988,1,2,1,2,1.8184278028966219,1,1,0
121,0,0.4894721890616721,0.45494022725634364,0.6595204512241877,0.6025258987561606,2,1,0.8197974438189704,1,2,2,1,1.0687131824233802,1,1,0
122,1,0.48909174804332545,0.4613310095262116,0.6736604930666178,0.6084586612567547,2,1,0.6165689485387702,1,1,2,1,0.660247083826107,1,0,0
123,0,0.47673604945867076,0.4308558645161378,0.6560558382579971,0.5962055987603625,2,1,1.1574402993246622,2,1,1,2,1.4769930460206524,2,0,0
124,1,0.4663574775661721,0.414920873955271,0.6947398632565785,0.6063650663708249,2,1,1.0342368041347072,2,2,2,1,1.150352520562592,1,0,0
125,0,0.4777185125591719,0.39080201538843706,0.723865221260287,0.6290250030988888,2,1,1.0336889477657678,1,2,2,1,1.240975738823181,2,1,0
126,1,0.4816007215495526,0.39423348647344714,0.7327075424221895,0.6061625407329325,1,2,1.2460809284530114,1,1,2,1,0.8880266563137411,2,0,0
127,1,0.4804794570578377,0.4098287486017649,0.7366846267174447,0.6039561730603178,1,2,1.2336215656541754,2,2,2,1,1.0076311148695822,2,1,0
128,0,0.44995120869386285,0.39978065375585725,0.7299325533239367,0.5881010871833838,2,1,1.122207831031119,1,2,2,1,1.2604116818147304,2,0,0
129,1,0.41152190000320266,0.4159544686944312,0.7446205498062887,0.6118564057288072,2,1,1.2623391236920725,1,1,1,2,1.371770269179251,1,0,0
130,1,0.45195152271381184,0.41965741116996663,0.7180354839081464,0.5576636655805325,1,2,1.1571708914088958,2,2,2,1,0.9402957098463958,1,1,0
131,0,0.4368780611592238,0.4360053756219478,0.7085040088975338,0.5460941107197166,2,1,1.037357596516813,1,2,2,1,0.7950203532564046,1,1,0
132,0,0.43517558020354175,0.38145797526091707,0.6986717818083077,0.586210154301876,1,2,0.857007378279377,1,2,1,2,1.3004922872205498,1,1,0
133,1,0.4187491077117409,0.3909721350180989,0.6698631535969195,0.5398086969345273,2,1,1.2493493828951614,1,1,1,2,1.3158850019935926,2,1,0
134,1,0.3937890591107345,0.4144729139155263,0.6662263114157616,0.5332456216346944,2,1,1.1694642097281758,2,2,2,1,0.9329412353217776,1,1,0
135,0,0.3665937712545486,0.4219578701701425,0.6015280687183773,0.4838905851919415,1,2,1.0009736655265442,1,2,1,2,0.9302552926274075,1,1,0
136,1,0.38469825430616067,0.3894827052955465,0.5995620769983376,0.4631824366436581,1,2,0.9034528210686403,1,1,2,1,0.9521894365570915,2,0,0
137,0,0.3766344842041569,0.4299401771419071,0.6005081935934214,0.4217082061760511,1,2,1.050001988918666,1,2,2,1,0.7992528299910191,1,0,0
138,1,0.41028996880947977,0.44535476453128425,0.5868622692024479,0.461388713374172,2,1,1.6926902459890698,1,1,1,2,0.7491553127620136,1,0,0
139,0,0.4211312898730148,0.41822425458714374,0.5856302037887176,0.4368069597884321,2,1,1.0326158363641298,2,1,1,2,1.0442341281377594,2,1,0
140,0,0.38701637325706595,0.4427458735804371,0.594593189806833,0.4610603708648527,1,2,1.643182472937042,2,1,2,1,0.9135031828700448,2,1,0
141,1,0.4085163009021666,0.44813588832636425,0.5596899538255633,0.45541291283414975,2,1,1.0937021228382946,2,2,2,1,1.1033766997716157,2,1,0
142,1,0.3971998573530333,0.4745301062111487,0.5646123481889725,0.4732788538417454,2,1,1.2749609147576848,1,1,1,2,0.8161363288454595,2,1,0
143,0,0.39541641096143376,0.4327842024470083,0.5250157237842648,0.48320325765193733,1,2,0.9663860886648763,2,1,1,2,1.26038064264867,1,0,0
144,1,0.39977641590383545,0.41234079877440877,0.5134088386865505,0.46846201011609034,1,2,1.286000612344651,2,2,2,1,1.1755289013817674,2,0,0
145,0,0.40609910620349354,0.42555859923392314,0.5343691921602371,0.4503513997881088,1,2,1.0713063089679054,1,2,1,2,1.4086384714501037,1,0,0
146,1,0.41472766365998553,0.44053731884190006,0.54765636261262,0.42234338270102323,2,1,1.0239547033088456,1,1,2,1,1.1932405131628911,2,0,0
147,1,0.4280993513544638,0.45609192585267383,0.5738399821551929,0.42782365803369693,1,2,1.4818713182430656,1,1,1,2,0.9313464851002209,1,1,0
148,1,0.44176063627613016,0.4493373500442701,0.534908833229325,0.43418643729095485,2,1,0.7389871226623654,2,2,1,2,0.6811955081793712,2,1,0
149,1,0.441040699626678,0.4405547510157073,0.5490424539944339,0.41846443530082356,1,2,1.1102348489694123,1,1,2,1,0.721233321721229,1,1,0
