trial,common,reward.1.1,reward.1.2,reward.2.1,reward.2.2,isymbol_lft,isymbol_rgt,rt1,choice1,final_state,fsymbol_lft,fsymbol_rgt,rt2,choice2,reward,slow
0,1,0.6974174079346942,0.5028813634915777,0.3697408697015015,0.32499803091835966,1,2,,,,,,,,0,1
1,1,0.6955880564571402,0.47404348334259083,0.38259168194666476,0.3381612262713043,1,2,0.7827014067333948,1,1,1,2,1.1521101905527757,2,1,0
2,1,0.6920292557771905,0.4959665020122632,0.339077978034547,0.3291165545265069,2,1,0.9088671427816735,1,1,2,1,1.0392858359027741,2,0,0
3,1,0.7161972959323056,0.4466087078477723,0.30392586489262596,0.31356534348957443,2,1,0.658477873503216,1,1,2,1,0.7249135651945835,2,1,0
4,1,0.7466421162199578,0.46224801619218203,0.31838500638355927,0.28933872636138247,1,2,1.3028860018857813,1,1,2,1,0.6837117439536087,2,1,0
5,1,0.7347423080277493,0.4344250689851732,0.31302431344077863,0.3250713270785708,1,2,0.6408967944462347,1,1,2,1,0.679284305042529,2,0,0
6,0,0.7208881876623208,0.42870727796343644,0.3366575501984363,0.2846049268978126,1,2,0.7854256136324693,1,2,2,1,1.7550931971072714,2,0,0
7,1,0.6835964918502184,0.4069415028135941,0.3698666781019138,0.3083137691727143,1,2,0.692137498919692,1,1,2,1,0.6909782042348525,2,0,0
8,1,0.6942299437682085,0.43560278440786454,0.34484607324273187,0.25643047643759465,1,2,0.673316664642698,1,1,2,1,0.6809878384046897,1,0,0
9,1,0.6950641955544385,0.40975753574181284,0.3563127212739411,0.2580107683867564,1,2,0.6184709062836191,1,1,2,1,0.6684311732442438,1,1,0
10,1,0.7061148812614758,0.41565044896302195,0.35754942803858364,0.2828216884382022,1,2,0.7558779133432836,1,1,1,2,0.8450372273127869,1,1,0
11,1,0.6626506438749482,0.45262400920681756,0.38776711707674655,0.26678945531669274,2,1,0.8326731250053854,1,1,1,2,0.9302651250000054,1,1,0
12,1,0.6861973201555565,0.4144113310950224,0.39890691379816134,0.27137752387890224,2,1,0.7227911548852717,1,1,2,1,0.700278176480424,1,0,0
13,1,0.68788087679908,0.4494952651000166,0.40342331465814096,0.25842845768388,1,2,0.9602805209869985,1,1,2,1,0.6512352198969893,1,0,0
14,0,0.6896005569617611,0.44008429065717247,0.3767001280838036,0.2690985877742254,2,1,0.7562087959940982,2,1,2,1,1.3277700046128302,2,1,0
15,0,0.6491561400361576,0.4708830567531398,0.41434425225452465,0.2713071951022266,2,1,0.6526786879312567,2,1,2,1,1.081124410371558,2,1,0
16,0,0.6305536843753785,0.46001337541577314,0.3981547875416511,0.26563520883319724,1,2,1.061721668624159,1,2,1,2,1.1730778445144097,1,0,0
17,1,0.6181852658855549,0.4329355881395007,0.43593102922437094,0.2861312768212933,1,2,0.689752612481243,1,1,1,2,1.0474753322159813,2,1,0
18,1,0.6356452077743037,0.47894438477752366,0.46580806233382077,0.2519529722384506,1,2,0.9357882736749161,1,1,2,1,0.7191842928987171,2,0,0
19,0,0.6293631549551368,0.4730751588888156,0.4733951886984042,0.25042327568936007,1,2,0.9641610090657196,2,1,2,1,1.0818738686175493,2,0,0
20,1,0.6258338791363216,0.47597280377383583,0.4527720186812012,0.2525105766550153,1,2,0.7813064560996281,2,2,1,2,1.269947507787947,1,0,0
21,0,0.6506996937188437,0.48449145406818617,0.46594645566337206,0.2878083675420453,2,1,0.754994354201699,2,1,1,2,1.1810205349138414,2,1,0
22,1,0.6793372773111142,0.47230638694494376,0.45529454253450696,0.2797524905725739,1,2,1.1003620121409767,1,1,2,1,0.8428666009513108,2,0,0
23,0,0.6828184314194158,0.47188808705889196,0.4749658497700326,0.2998483805550771,1,2,0.7942268510978465,1,2,1,2,1.5291877373329044,2,0,0
24,1,0.6713106853751243,0.48200352782531547,0.460070113263773,0.3052980242726762,2,1,0.5837541439432243,1,1,2,1,0.920069238249198,1,1,0
25,0,0.6786862883098724,0.4554347107620107,0.4880986230503893,0.26093111844633365,2,1,0.677385195320312,1,2,2,1,1.294035342967618,2,0,0
26,0,0.6900295401824311,0.4584383865509231,0.48031160945994444,0.29485027973495315,1,2,0.7361334403340152,1,2,2,1,1.0481232354050007,1,1,0
27,1,0.6808683403801234,0.4696801375374731,0.5049441947688715,0.2623016198804087,1,2,0.7071019531413185,1,1,1,2,1.1893055592809105,2,0,0
28,1,0.6789495188672385,0.4963493477256712,0.5260184418393957,0.2773073426551145,2,1,0.649049827370618,1,1,1,2,0.9201394528754463,1,1,0
29,1,0.6890209908543353,0.44600434535008704,0.5131323254324673,0.27020937330333394,1,2,0.8506146190466097,1,1,2,1,0.7749371157224232,1,0,0
30,0,0.7336467585323866,0.46747559478510015,0.47253823284303653,0.28587109773546227,1,2,0.43533187861430633,1,2,1,2,1.1234029563074728,1,0,0
31,1,0.7387756038197276,0.46080151379988243,0.47994384245403676,0.2896213051443695,1,2,0.5951069145739893,1,1,2,1,0.8440527158145414,1,1,0
32,1,0.6449664694046275,0.4748089250004878,0.48259957784771085,0.30865557406474514,1,2,0.675767848149917,1,1,1,2,0.9429504667459696,1,0,0
33,1,0.6377967972994358,0.4602886215303932,0.467059675844234,0.31513269959571044,1,2,0.7151531296585745,1,1,2,1,0.6594087446446792,1,1,0
34,1,0.6432319982088297,0.4728841755024493,0.48936535396925007,0.3150103837772842,2,1,0.8217229584042798,1,1,2,1,0.7123716661990329,1,1,0
35,0,0.6791039305398802,0.47412573700632177,0.4977396103835501,0.3038021654375984,1,2,0.9292381231061881,1,2,2,1,1.1090680229044665,2,0,0
36,1,0.6722559041122191,0.5294278246533405,0.5238296414843991,0.3362904247108864,2,1,0.7227320902220526,1,1,2,1,0.5274136879943399,1,0,0
37,1,0.672387835449283,0.5206924473828622,0.5487071062788833,0.3340103336662692,1,2,0.7004273448892491,1,1,1,2,0.8657062431047962,1,1,0
38,1,0.6548490277067283,0.5582611960840488,0.5660825383161947,0.3654135895406093,2,1,0.838481049735492,1,1,1,2,0.8881465960821515,2,1,0
39,1,0.6596329043242682,0.5841223387549891,0.5444740495062925,0.3549560736811599,1,2,0.6871667253799387,1,1,1,2,0.7172080374948564,1,1,0
40,1,0.6567370708912348,0.5826887799687723,0.5096440733690637,0.35103041832734716,1,2,0.6541110060061328,1,1,1,2,1.041001121928275,2,1,0
41,1,0.658042373200207,0.5935146344331553,0.5183057079030838,0.40312846863966184,2,1,0.6774581220997788,1,1,2,1,0.9732250240085705,1,1,0
42,1,0.6516955582650059,0.5470564039562329,0.5027130807629514,0.4062081828465113,2,1,0.6722863478971703,1,1,2,1,0.8129190087875031,2,1,0
43,1,0.6775117650438294,0.5104839600299331,0.5204839370175179,0.3992390207665071,1,2,0.6963693614725344,1,1,2,1,0.6192399523024505,2,0,0
44,1,0.6771286742277303,0.512624610244499,0.5286672268169332,0.3837511653146677,1,2,0.6240052049215592,1,1,2,1,0.46922113297478063,2,1,0
45,1,0.6985079936002468,0.5360844108212093,0.5567043991379722,0.40670979303437016,1,2,0.6279408401096589,1,1,2,1,0.6008337760686118,2,0,0
46,0,0.7084455876560276,0.5417063223322904,0.5752190317189453,0.335999619595706,1,2,0.587296516963761,1,2,1,2,1.0320621673654387,2,0,0
47,0,0.7472691194305242,0.5139616674916447,0.5696233571200073,0.33665110177532215,1,2,0.7440176687723579,1,2,2,1,0.9971428976095922,2,1,0
48,1,0.7278860516734382,0.5340610506480359,0.5625390387790699,0.3676982662917652,1,2,0.55415129654466,1,1,2,1,0.5840241538298869,1,1,0
49,1,0.7312652975813008,0.5919794055921638,0.5354290007206615,0.39584661437811897,1,2,0.6467020070231229,1,1,1,2,0.8019248450382293,1,0,0
50,1,0.7205184807462954,0.609161409832743,0.5526573737050522,0.3626602597806492,1,2,0.8431881417454861,1,1,2,1,0.7500166496047314,1,1,0
51,1,0.7329213008579262,0.6098279037582741,0.5822408717022495,0.37768953250495485,1,2,0.6594551525922725,1,1,1,2,0.38022213737531274,2,1,0
52,1,0.7421312489256989,0.5902843192115867,0.577423805159405,0.3879770616122529,1,2,0.6490088437276427,1,1,2,1,0.9437644139616168,2,1,0
53,1,0.7272670560285786,0.5795019149436045,0.6116173857364864,0.3842584030654046,2,1,0.665358002674111,1,1,1,2,0.5631441928126151,2,1,0
54,1,0.7227671164881941,0.5633008732068117,0.6273459362570705,0.4040345895358182,1,2,0.5809597224197205,1,1,1,2,0.6392523257454741,1,1,0
55,1,0.7485979742941692,0.564919866616265,0.6016231073538973,0.42555511780108857,1,2,0.5953281057081767,1,1,1,2,0.8552683720481582,1,1,0
56,0,0.7487066973034466,0.5625296968472631,0.6164437042999729,0.4142065370027028,1,2,0.588269878498977,1,2,2,1,1.0491005144958763,2,1,0
57,1,0.7124490228360226,0.5677994333416624,0.6112986645709746,0.4054603508852399,1,2,0.5915609253515868,1,1,2,1,0.7239950494185905,2,0,0
58,1,0.7003308662084367,0.5617835194292136,0.6538678034723712,0.42750596118018425,1,2,0.637362256535198,1,1,2,1,0.6722959911057842,1,0,0
59,1,0.6967979022110153,0.5504615117612492,0.6401764769457361,0.4365586437611777,2,1,0.6831301378351782,1,1,1,2,0.8228026966044126,1,0,0
60,1,0.7375745329142619,0.5612192238396654,0.5744143773285781,0.44734800880874415,2,1,0.660096426076052,1,1,1,2,0.6979047413551598,2,1,0
61,1,0.7439227219600507,0.5216492648364877,0.55730392069797,0.4543590400029674,2,1,0.6314814050274435,1,1,1,2,0.3952583129739651,2,1,0
62,1,0.739861287963717,0.513218090262781,0.5313365282965745,0.4711130597141327,2,1,0.4410147429607605,1,1,1,2,0.6691064993119653,2,1,0
63,1,0.7434580942140829,0.4741290711620181,0.5754312854864421,0.4910608193098713,1,2,0.7119937728966761,1,1,1,2,0.6130550383204536,2,0,0
64,1,0.734185438371978,0.445529092800498,0.5982346419603592,0.5045178577565197,2,1,0.7221760988813912,1,1,2,1,0.773144985363615,2,1,0
65,1,0.7173839226477123,0.3990569592187625,0.6203678257885864,0.49936932214061946,2,1,0.6429758103095082,1,1,2,1,0.5691657749212027,2,0,0
66,0,0.6831634376271396,0.4366552350517616,0.6128927147433734,0.47802259557913485,2,1,0.6342273091486277,1,2,1,2,0.7973675241391902,2,1,0
67,1,0.6755499393117601,0.4163592797992126,0.6060474161327682,0.4831727842701676,1,2,0.6812491091332049,1,1,2,1,0.503991837022113,2,0,0
68,0,0.7015828141301563,0.433488565394894,0.6216440430698409,0.4510652253005343,1,2,0.7711599908034259,2,1,2,1,0.8912583394921967,2,1,0
69,0,0.7377522663249555,0.4049599163236026,0.5969032454211844,0.4341121987518739,2,1,0.6868219806128764,2,1,1,2,0.9164147629107902,2,0,0
70,0,0.7459606895691939,0.44618651756377326,0.5780119777365678,0.41392013046539566,2,1,0.8220824693380564,1,2,2,1,1.1920909402942925,2,0,0
71,1,0.7286954191370174,0.39624728219111294,0.55844406263052,0.3660068260345053,2,1,0.8973329592572554,1,1,2,1,1.0312415904427326,1,0,0
72,1,0.7378797862879253,0.3865173966842106,0.566597013137896,0.38498664440801444,2,1,0.6305517392884212,1,1,1,2,0.7802640853387857,2,0,0
73,1,0.7422276663420371,0.3928421793525533,0.6017402786101662,0.4012575198217108,2,1,0.8173835137858987,1,1,2,1,0.7188190563101671,1,1,0
74,1,0.7447226915343642,0.36130737787457523,0.6119094916673037,0.3806273108184717,2,1,0.5841980329660146,1,1,1,2,0.5778133237217844,2,0,0
75,0,0.7133626005816092,0.40108226756530374,0.5807248540458967,0.41563964764521316,2,1,0.9542935941663018,2,1,2,1,1.2313731599933817,2,0,0
76,0,0.7003007148123179,0.39178340076990414,0.6222609561115601,0.4251051374386969,1,2,0.9317348105123529,2,1,1,2,1.6878146285689581,2,0,0
77,1,0.720724357946497,0.378128135191629,0.6496738183423879,0.4088895832697972,1,2,1.274138989396306,1,1,1,2,0.5908931330395717,1,0,0
78,0,0.7009132507774993,0.4011558171403062,0.6245376455151093,0.41272924000393846,2,1,0.7330608724641934,2,1,1,2,0.6852591778515489,1,1,0
79,1,0.7154920240716528,0.41184977034352666,0.6404748558359196,0.4305605829287115,1,2,0.8033984481062362,2,2,1,2,0.9393562614714028,1,0,0
80,0,0.7243291972788237,0.4054479630879042,0.6743692552582711,0.41940765361352916,2,1,0.7815653160250804,1,2,1,2,1.0350786840754154,2,1,0
81,0,0.6855828883557102,0.4042048599480572,0.7098673133840152,0.4355786287634493,1,2,0.9358144911529962,2,1,2,1,1.3571932472223125,1,1,0
82,0,0.6668126069085591,0.43488925192721334,0.7025890897746607,0.5019536159481889,1,2,1.4490728505352308,1,2,1,2,0.9853236366834608,2,1,0
83,1,0.6834205998022844,0.4435599435166157,0.714020067224632,0.4978516847125327,2,1,0.6503839052402327,2,2,2,1,0.8370891126032802,2,1,0
84,1,0.6895024876725147,0.4714419252892164,0.725594528643481,0.4784622668715688,1,2,0.7923696290708904,2,2,2,1,0.821253153255384,2,0,0
85,0,0.6595104038902084,0.4859479071909556,0.7224935059389419,0.48648589824567867,2,1,1.0404764710183372,2,1,2,1,0.7351088492432609,1,1,0
86,0,0.6753590225484358,0.5177458940446904,0.705981774728861,0.48065052734458,2,1,0.8703458326417604,2,1,1,2,0.8900680057267891,1,0,0
87,0,0.6240834266682329,0.504308337698848,0.6881724139586993,0.46996871360698744,2,1,0.7277287798897305,2,1,1,2,0.7250181337567483,1,1,0
88,1,0.6680523156864973,0.5102022735212969,0.7194122510527506,0.49530240940578507,1,2,0.6871100715197827,2,2,1,2,0.9203820398815878,2,1,0
89,1,0.6431999593686046,0.482264470528341,0.7297203098157382,0.4891733440384516,2,1,0.7179574957426667,2,2,2,1,0.9746784366052452,2,0,0
90,1,0.6182017136292237,0.43656086482637435,0.7247567709349743,0.46168320739699453,2,1,0.7676962702171295,2,2,1,2,0.7672792013727303,2,1,0
91,0,0.6084780211588661,0.4651726046853011,0.7486731265124619,0.5143340364599097,2,1,0.769106891068077,2,1,1,2,0.7061906697726954,1,1,0
92,1,0.6015930270887662,0.4749108023979428,0.741623535620592,0.5355190755604217,1,2,0.827800893021049,2,2,2,1,0.7334556413825339,2,0,0
93,0,0.574506443934304,0.4818664111196813,0.7483948825509209,0.5494868504314357,2,1,0.8366286493146617,2,1,2,1,0.6166468327937764,1,0,0
94,0,0.52638154696127,0.5102273353342007,0.7176781500290197,0.5577443045080234,1,2,0.7031208140560921,2,1,2,1,0.6054025482790166,1,1,0
95,0,0.546556584376632,0.5297846773375645,0.717797647667741,0.5779380310072122,1,2,1.1434108094963449,1,2,2,1,0.863937919422824,2,1,0
96,1,0.568121576287954,0.5520030320833481,0.7389107763672564,0.6058798715441884,2,1,0.8647578936452192,1,1,1,2,0.7631314155605651,1,0,0
97,1,0.5496076583048819,0.5508111832327809,0.7353126090472153,0.576439438157653,1,2,0.9963934393617819,1,1,2,1,0.7625413716323237,1,1,0
98,1,0.5659350064924931,0.5482963332170199,0.7136120458023418,0.5809789089058608,1,2,0.6947059077010636,1,1,1,2,0.6880300940483721,1,0,0
99,0,0.5538430984964846,0.5476966689963478,0.7085556237268162,0.6109004682367607,2,1,0.5661028502618137,2,1,1,2,0.6211508146861888,1,1,0
100,1,0.5336705619528725,0.591413845452191,0.6870862015371975,0.6328952421092909,1,2,0.6156062701356859,1,1,1,2,0.6837271128206339,2,1,0
101,0,0.541173846357765,0.612081252127152,0.689925152038325,0.6460302988204196,1,2,0.6296133343912516,1,2,2,1,0.8359924987871636,2,1,0
102,1,0.54269836898682,0.6120932219218085,0.7138487380686411,0.6554326956574583,1,2,0.7453387885780103,1,1,1,2,0.6120693214215862,2,0,0
103,1,0.562121841103706,0.618960551831008,0.7431417881383904,0.7009657991740846,2,1,0.6264609086847486,1,1,2,1,0.6852778615702846,2,1,0
104,1,0.5726385366891568,0.6087332463947026,0.7432163465232816,0.6751830453735073,2,1,0.6391649341530865,1,1,2,1,0.6189928450385196,2,1,0
105,1,0.5611745369995851,0.5777321804010525,0.7332307923403366,0.685051699185517,2,1,0.7056307608763746,1,1,1,2,0.5605137058646505,2,0,0
106,1,0.5328305885190838,0.5684390546964835,0.7491769368676263,0.6941445190688222,1,2,0.6641215623094467,1,1,2,1,0.6443098881791229,2,1,0
107,1,0.5404868422824475,0.5797187648525881,0.7478280044682675,0.6476638556270464,2,1,0.6138942989637144,1,1,1,2,0.538239396913923,2,0,0
108,1,0.5724379225675116,0.5582418342691151,0.7420256914933263,0.6852940837298866,1,2,1.0461927852502413,2,2,2,1,0.853107991599245,2,1,0
109,1,0.5878771002947447,0.5502765156398832,0.738112182665199,0.6829981944297883,2,1,0.6139551717278664,2,2,2,1,0.7648997392425372,2,1,0
110,0,0.5848774071049401,0.5096328337907661,0.740301805438059,0.6848450705177905,2,1,0.5943065281226154,2,1,1,2,1.4090875805395626,2,0,0
111,1,0.5540275867610776,0.5374701385383154,0.7199903739263429,0.6887906505403514,2,1,0.7065314969859173,2,2,1,2,0.8333168092904089,2,1,0
112,1,0.5296124944794984,0.5406123114999513,0.7434204462843994,0.7005544695602514,1,2,0.7281940647844749,2,2,2,1,0.7390896869783319,2,1,0
113,1,0.5066821600584643,0.5024331199105374,0.7498711807087519,0.732476703348121,1,2,0.852066524892507,2,2,2,1,0.5364831272454467,2,0,0
114,1,0.482706360392694,0.5323050975861672,0.7356117472621224,0.7343731927027392,1,2,0.6763054571219982,2,2,2,1,0.8871268265957042,1,1,0
115,1,0.46024912516200844,0.5379924352257069,0.7330408088077847,0.7410259312920573,1,2,0.6970202781649277,2,2,1,2,0.907185607989959,2,1,0
116,1,0.4705803590846978,0.5274543549339168,0.7230935293790335,0.7264289305275042,2,1,0.649478950228513,2,2,2,1,0.7611982532525872,1,1,0
117,0,0.4574274095415445,0.5349192712707436,0.7437873231307042,0.7208325974683871,1,2,0.5798489451372006,2,1,1,2,1.0031795472332306,1,0,0
118,1,0.4311534855576946,0.5647305166492966,0.7493084013547985,0.7138250236850259,2,1,0.8331712570852687,2,2,2,1,1.1793558757435676,2,0,0
119,0,0.43182577142803025,0.5750515478881963,0.7173997087543411,0.7024535509673804,1,2,0.6260278682748321,2,1,1,2,0.8616331921712117,1,1,0
120,0,0.4188111033487727,0.5754243745418833,0.6838420355211619,0.6970375372579101,2,1,0.630413419490651,2,1,1,2,0.6867255485103669,1,1,0
121,1,0.4329630223212847,0.6017786448123529,0.6677935406291153,0.7024361387562398,2,1,0.6704598636024457,2,2,1,2,0.7021381106587796,1,1,0
122,0,0.4270349804121294,0.5885135928231648,0.6120762534088273,0.7155262980582867,1,2,0.8911326764100522,2,1,1,2,0.7957384243054548,1,0,0
123,1,0.4247212912609495,0.5813624172190004,0.5868743777049594,0.7029902957331386,1,2,0.6608247898002446,2,2,1,2,0.8871063347760355,2,0,0
124,0,0.416482839652073,0.592017880864141,0.5853669058255591,0.7144210755697921,1,2,0.7433977911623515,2,1,2,1,0.878811365848378,1,0,0
125,1,0.4186438113634277,0.5943117106625116,0.6249512886415549,0.7105736659436015,2,1,0.7061358240134723,2,2,1,2,0.5500297282087558,1,1,0
126,1,0.4109576052495503,0.6115345936668576,0.6114859627274793,0.6500278188510857,2,1,0.6846106719603995,2,2,2,1,0.7152634238755127,1,0,0
127,1,0.39413399165283236,0.6044288827819646,0.6774063805677132,0.6527539337318425,1,2,0.740677200466962,2,2,1,2,0.6213186668137496,1,1,0
128,1,0.4156814271542049,0.6522967432261033,0.6297591205358157,0.6634240124275952,2,1,0.5870081247066992,2,2,2,1,0.6371546261652838,1,1,0
129,1,0.4077737554612513,0.6970037898625213,0.617675127233509,0.657002509777008,1,2,0.6331569128105912,2,2,1,2,0.6423978203929437,1,1,0
130,1,0.3996224043132113,0.6879446226915862,0.615917263572781,0.6167095148108621,1,2,0.6175002568998025,2,2,2,1,0.6789871736273199,1,0,0
131,0,0.3537493090275703,0.7198206132879233,0.5753008626609248,0.6243608989084963,2,1,0.6782910543861362,2,1,2,1,0.9850858712816262,1,1,0
132,1,0.29000026512808796,0.7077950503646084,0.5738183027102941,0.6397227260917122,2,1,0.7095956270441093,2,2,1,2,0.8003725895378011,1,0,0
133,1,0.31296313239508083,0.6780981392525418,0.5740744054907071,0.6427279534503851,2,1,0.7171393296212045,2,2,2,1,0.6713413132893038,2,1,0
134,1,0.28381549942620454,0.6828736130549853,0.5914919732498034,0.6536290706335156,2,1,0.6302211579859431,2,2,2,1,0.9429595072560915,2,1,0
135,1,0.30314527584014767,0.6578708891066989,0.5451533670816935,0.6867626503957748,1,2,1.1831073858866148,2,2,2,1,0.5900767750208615,1,1,0
136,1,0.32044390856694277,0.6173843727261532,0.5266547374056718,0.704804194531373,2,1,0.6150713733168232,2,2,2,1,0.8710597315512132,2,1,0
137,1,0.27801357464334253,0.6565198350330521,0.4912529249876232,0.6880049720890526,2,1,0.7214673229282198,2,2,1,2,0.8766952838977886,2,1,0
138,1,0.2657354280068247,0.6367846479228629,0.5034009356583471,0.7015735901723776,1,2,0.6114605937746092,2,2,1,2,0.7169922706652869,2,0,0
139,1,0.2682079581261485,0.6211587413536468,0.5377095263709776,0.6850014282998427,1,2,0.6403625003276829,2,2,2,1,0.8740792617645639,1,1,0
140,0,0.28895768674802114,0.6484217118058496,0.5706568593630237,0.6874979524428416,1,2,0.6173333088245272,2,1,1,2,0.9931063100648316,1,1,0
141,1,0.31318254276921415,0.6404714501154458,0.576571905946807,0.7098713983664707,1,2,0.8519300131974887,2,2,1,2,0.8809364883090893,1,1,0
142,0,0.29597360323976396,0.6685549080342336,0.587121449850992,0.6840947613969357,1,2,0.6307687115204317,2,1,2,1,0.7275621331627917,1,0,0
143,0,0.2600228064574184,0.7127101921926676,0.5591309822856636,0.7204879417019472,2,1,0.6155137555870169,2,1,1,2,0.7768283903333213,1,0,0
144,1,0.3034899791847685,0.7240454544640983,0.49818065642133647,0.7494027666427324,2,1,0.7680476446912508,2,2,2,1,0.8301215918418166,1,0,0
145,1,0.29309006875096366,0.7471891925690464,0.4914474251764436,0.7136626469503228,2,1,0.9656870470898866,2,2,1,2,0.7788435199290689,2,1,0
146,1,0.2762537403633374,0.6994850153638549,0.4836291798991712,0.7291388198723238,1,2,0.706555002310779,2,2,2,1,0.8707478339692898,1,1,0
147,0,0.2815769795597949,0.7300688809065667,0.5003149159104314,0.7044392897673086,2,1,0.6072260190685483,2,1,2,1,0.9201020854343369,2,1,0
148,1,0.25862085961813674,0.746474065753343,0.4745294664494695,0.6891250391732511,1,2,0.7331609207703877,2,2,2,1,0.9534585524270369,1,0,0
149,1,0.25750057099317525,0.7376401593560287,0.4516584227418452,0.6892394444712145,2,1,1.11368410711475,1,1,1,2,0.5522347085061483,2,1,0
