trial,common,reward.1.1,reward.1.2,reward.2.1,reward.2.2,isymbol_lft,isymbol_rgt,rt1,choice1,final_state,fsymbol_lft,fsymbol_rgt,rt2,choice2,reward,slow
0,1,0.6785896794246755,0.2657690655278822,0.26729920892836473,0.49245651138323,2,1,1.4264896531167324,1,1,2,1,0.9101458839977568,1,1,0
1,0,0.6617826079083275,0.2638424133528081,0.31146377220141597,0.4729820754780003,1,2,0.7877642471175932,1,2,1,2,1.104238501200598,2,0,0
2,1,0.669593046481582,0.2610828764618818,0.2999094011982466,0.5216029577480906,1,2,1.018320631388633,2,2,2,1,1.2600604510043922,2,0,0
3,0,0.7155382987207886,0.2945154376446521,0.31132679477882014,0.532224526252523,2,1,0.9558668510944699,2,1,2,1,1.0512537706563307,1,0,0
4,1,0.6928450019877319,0.3120326381272031,0.27162598476717714,0.5405441718405625,1,2,0.8762065338924003,2,2,2,1,1.2871063979800965,1,0,0
5,0,0.6881946749870558,0.3218803322137155,0.27351463392282155,0.5707260808495586,1,2,0.7551993587221659,2,1,2,1,1.2288453135406598,1,1,0
6,0,0.7108744193569916,0.3165656901167986,0.2636310693484083,0.5798839598967946,1,2,0.8350618824188132,2,1,2,1,1.5950240930069413,2,0,0
7,1,0.7246505937782243,0.31987471270426904,0.2607992669664916,0.5656501730485055,1,2,0.8355024575175776,2,2,2,1,1.3529768954249448,1,0,0
8,1,0.736228294829968,0.32365973582541435,0.28124775157690163,0.5750952087184601,2,1,0.6008724110179173,1,1,1,2,1.5601125847169897,1,1,0
9,1,0.7399237767913839,0.2905703317389876,0.28107601980751085,0.5670309949466106,2,1,1.4674522886125487,2,2,2,1,1.1827588077358087,2,0,0
10,1,0.7108458372161928,0.28893492788000397,0.2518119584122762,0.6152149573424707,1,2,0.9362712038055179,2,2,1,2,1.671132989191392,2,1,0
11,0,0.7371623002958492,0.2607653858399983,0.27274717291427253,0.6277650093331748,2,1,1.2631791320491175,2,1,1,2,1.3883362112355826,1,1,0
12,1,0.7427290312463172,0.30114983974628834,0.2577876456242256,0.5848199802943099,1,2,0.8542799369570275,2,2,2,1,1.1309951512630505,2,0,0
13,1,0.7245939680974081,0.2993724789681167,0.27273068340812234,0.585214580828752,2,1,0.8237554958868714,2,2,2,1,1.2865220784806297,1,0,0
14,1,0.7343325264531703,0.3128480260722415,0.30098563296192926,0.5761992556452602,2,1,0.8005312817367667,1,1,2,1,1.136111487798189,1,0,0
15,1,0.7450167024662421,0.31270664287872685,0.325266295664203,0.5647751029208594,1,2,0.898349500810582,1,1,2,1,0.7719092692532286,2,0,0
16,1,0.7289382455958311,0.29808580037360066,0.37263665640408633,0.5872149523094274,1,2,0.9374280901283782,2,2,1,2,0.7870428129281208,2,1,0
17,0,0.7265296555569318,0.2998503638014157,0.3345728168614681,0.5656110361053286,1,2,0.6347939814186248,2,1,1,2,1.4801192747108871,1,1,0
18,1,0.7327186796612893,0.3151754294131231,0.3626826567711836,0.5699005293994669,1,2,1.396492576219316,1,1,2,1,0.52494221595407,1,1,0
19,1,0.7303785685710413,0.3222046023205852,0.34561344810749506,0.5995695033507896,2,1,0.850718872708967,1,1,2,1,0.6512652219898882,1,1,0
20,1,0.7391133372350909,0.30335174753413163,0.35561033628006056,0.6270788592931625,2,1,0.6389881840295857,1,1,1,2,0.7845328608163982,1,1,0
21,1,0.733031957313762,0.2959702837829421,0.40354616603924737,0.6475164143353141,2,1,0.6264016586355865,1,1,2,1,0.9892351411399432,1,1,0
22,1,0.7465219535171478,0.30154105920030766,0.40719485274446876,0.642344296105033,2,1,0.8590072294064157,1,1,1,2,0.5780761152236664,1,1,0
23,1,0.7098486313852217,0.2990680113637627,0.3762441651572659,0.6527118594392627,1,2,0.8329521243722411,1,1,2,1,0.6281232766486937,1,1,0
24,0,0.7250245765663276,0.2985410797649686,0.3692935500231682,0.6316870628631115,2,1,0.9881204439516296,1,2,2,1,0.9733126606588485,2,1,0
25,0,0.7270104236542156,0.28527267298714865,0.3701952947288308,0.6300907588779663,2,1,0.8276429232246301,2,1,2,1,0.8392449350467359,1,1,0
26,1,0.7191331422104286,0.29906043593784626,0.36968054956793783,0.6385388828777242,2,1,1.1444510741639533,1,1,1,2,0.5375456170004327,1,1,0
27,1,0.6916561199370301,0.29427197457361465,0.3470289089842775,0.6426717604236916,2,1,0.8432378352154046,1,1,1,2,0.6302369522563822,1,0,0
28,1,0.6658051614708254,0.270070076901191,0.3495944233316811,0.6324882882073186,1,2,1.0580832873747568,1,1,2,1,0.6394811941936496,2,0,0
29,1,0.6695991957534186,0.2628498232530112,0.38170007884583196,0.6368653390695481,1,2,0.802947212352592,2,2,2,1,0.8258613363723271,1,1,0
30,0,0.6883442765638372,0.3192033889705224,0.3819964424126264,0.6396148829525065,1,2,0.7609295471593214,2,1,2,1,1.674222137844481,1,1,0
31,1,0.7179899103677052,0.3333277091708581,0.4092452071077418,0.6320631473349723,2,1,0.7415252577302454,1,1,1,2,0.6732698688210803,1,1,0
32,1,0.7092854075581743,0.34150123903691865,0.4225733373234572,0.6665682825843767,1,2,0.5982482468898525,1,1,1,2,0.5801129463397956,1,1,0
33,0,0.7143155636521423,0.36647981015215675,0.4111426122169035,0.675978058395217,2,1,0.6923637667678122,1,2,1,2,1.4746919439858175,1,1,0
34,1,0.6708760220254302,0.3550867809499878,0.4345207076890616,0.6635806131868454,2,1,0.6926584879984148,2,2,2,1,0.7118774465925526,1,1,0
35,1,0.6905279049471917,0.32385246986878924,0.42920025264879325,0.67552344276111,2,1,0.6698531516776711,2,2,2,1,0.5270332902400696,1,0,0
36,0,0.6840758789864199,0.351441966678995,0.4349419608827707,0.6921362866422748,1,2,0.7347539017428062,1,2,1,2,1.4271056144680188,2,1,0
37,0,0.6502267125776486,0.3185763229328802,0.3967034075885736,0.724745592708732,1,2,0.8011044512568333,2,1,2,1,1.3422002838706248,2,1,0
38,1,0.6721874670216328,0.35875487450907667,0.4025603728247513,0.7310222368399262,1,2,0.8276151989375649,1,1,1,2,0.6172348638938274,2,1,0
39,1,0.6515951035478669,0.3593619017036286,0.4055288215391812,0.7334246324728105,1,2,0.8780785260314588,1,1,2,1,0.686065833131579,2,0,0
40,0,0.6409856742452948,0.37843734981932764,0.3706659280384321,0.7046127399807338,2,1,1.2091125515689782,1,2,1,2,0.9471695611428004,1,0,0
41,1,0.6404689364958283,0.3547341158700714,0.3645720569983304,0.7252505114284935,1,2,0.6004146589184529,1,1,1,2,0.6543091680032376,1,0,0
42,0,0.6488004816198897,0.3800475420962843,0.3707091469250207,0.7056915022174395,1,2,0.9403713849169435,2,1,2,1,1.0943858316823025,1,1,0
43,1,0.6633328992585469,0.3410924783919651,0.37824710547882834,0.7064443697147266,2,1,0.7727635992123396,1,1,1,2,0.6916567974221834,1,0,0
44,1,0.6830432349276039,0.3608354268893279,0.36169122563343725,0.6336739001090801,1,2,0.9169696750541334,2,2,1,2,1.01927922878167,2,1,0
45,0,0.6848863020827937,0.3472111006924101,0.39071313541818786,0.6116234523111328,1,2,0.8676053748968116,2,1,1,2,1.061135068510339,1,1,0
46,1,0.6010767480441306,0.32596037763423835,0.4042207125527315,0.6148755313386961,2,1,0.7122833663306665,1,1,1,2,0.590996537477622,1,1,0
47,1,0.5983183894825568,0.3561108990851431,0.42418789128934004,0.6131995531786485,1,2,0.6330693498930486,1,1,2,1,0.6813391433788638,1,0,0
48,0,0.6468013184504601,0.31100386781871303,0.42322069794669126,0.5843463913651996,1,2,0.6338007286685752,2,1,2,1,1.6510090736774146,2,0,0
49,1,0.6226216154212423,0.2920250337877923,0.3994882664131476,0.547611716039228,2,1,0.771160110776691,2,2,1,2,0.9085866941495624,2,1,0
50,1,0.6042416843308076,0.3060965821324627,0.40616663707533074,0.5633723191399682,2,1,0.9021636998659233,1,1,2,1,0.5737170736429107,1,1,0
51,1,0.6100480986414193,0.29992095849101985,0.37414885367494,0.5469795737895595,1,2,0.7584373747522477,1,1,1,2,0.8160023384807573,1,1,0
52,0,0.5944429021069138,0.28833760158676003,0.37265048165941916,0.5557532528223798,2,1,0.6199250238823879,1,2,2,1,1.1691308134359133,2,1,0
53,0,0.6012077246073476,0.31114316890874844,0.3748010582263515,0.5023767051024572,1,2,0.6825291783061402,2,1,2,1,0.830021787674923,1,1,0
54,1,0.5944617859592873,0.333001810456695,0.32824348637531764,0.48120438116221864,2,1,0.6870937412422791,1,1,1,2,0.5062801539279462,1,1,0
55,0,0.5863737517365113,0.36760537988529796,0.3151161496864998,0.4691863064094446,1,2,0.584062753321632,1,2,1,2,0.9093699052864395,2,1,0
56,1,0.5978924328994153,0.34379436971003896,0.2906518464040633,0.4508173864011549,1,2,0.6262109034796595,2,2,2,1,1.1027823733820696,2,1,0
57,1,0.573410254275122,0.34689400132168924,0.28026619510467343,0.4557801920118836,1,2,0.6002615726283693,2,2,1,2,1.144093973281997,2,0,0
58,1,0.6040356113051112,0.30373267031769946,0.3075044184204555,0.4560329156612857,2,1,0.7235924650231027,1,1,2,1,0.5222195100650424,1,0,0
59,0,0.6342763008709386,0.302422460533309,0.29818576144281206,0.4473439037598075,1,2,1.0846482782326348,2,1,2,1,1.0259640970471082,2,0,0
60,0,0.6480543913185637,0.2995280164333298,0.3088857591759413,0.38904181423117334,2,1,0.8595336895305081,2,1,2,1,1.107016052963445,1,1,0
61,1,0.6398969542803872,0.3183266237377833,0.3098841774607135,0.34878201569802325,2,1,0.571330374070385,1,1,1,2,0.588850617314165,1,1,0
62,0,0.6244708811690409,0.32595617783894704,0.32115054425026673,0.36286014682425444,2,1,0.7465927754128643,1,2,2,1,1.0891911438993702,1,1,0
63,0,0.6259592465421482,0.3062923607598591,0.29879994542438704,0.3693916285657201,1,2,0.7821407369228837,2,1,1,2,1.1872980571897642,1,1,0
64,1,0.6957555183312102,0.3277258620931334,0.29922344474403045,0.37197066995482125,1,2,0.5182672922710481,1,1,1,2,0.5662215713018668,1,1,0
65,0,0.6985301331592375,0.3242108183695436,0.28279198613136414,0.38570305046775216,2,1,0.6865404608870449,1,2,2,1,1.007298720160179,1,1,0
66,1,0.6623943079596273,0.3074584441873669,0.280647511630713,0.38816209575492416,1,2,0.928670228633564,2,2,1,2,0.7011297647368337,1,0,0
67,1,0.6853540792823488,0.34070612038534664,0.2876515227142491,0.3417806259493117,1,2,0.7412618769958499,2,2,1,2,0.5914744800975313,2,0,0
68,1,0.7452142688317954,0.32449130138096294,0.2513155876580646,0.35619995338145766,2,1,0.673121302803338,1,1,1,2,0.5849363697452645,1,1,0
69,1,0.7407628312373242,0.34947369662588046,0.2524218585333564,0.35049999953374944,1,2,0.6225145326498023,1,1,2,1,0.5987258881577873,1,1,0
70,1,0.7314491342911281,0.37548732118158823,0.2626322108727359,0.3413329818152262,1,2,0.6680793999512389,1,1,2,1,0.6170781613982399,1,1,0
71,1,0.6839275527557063,0.36916540072940496,0.26013850332460553,0.35338304894502526,2,1,0.6621641820274817,1,1,1,2,0.6263043222752458,1,1,0
72,1,0.6733566484168405,0.3979188108944557,0.26983532148442063,0.3061807181797884,1,2,0.598928697349038,1,1,1,2,0.5195721419149777,1,0,0
73,1,0.6689847749191535,0.407949267133403,0.28575795796622894,0.3182074404524477,2,1,0.5901114697189769,1,1,2,1,0.8259957388982002,2,0,0
74,1,0.7165933015349396,0.39130232742919735,0.2893848422428547,0.2852090546115005,1,2,0.8953176088398322,2,2,2,1,0.6507809510039806,2,1,0
75,1,0.7469672075603898,0.3722857711482157,0.27420783931607806,0.30294203897978605,2,1,0.6907503337461094,2,2,2,1,0.873982563833124,2,1,0
76,0,0.7403226147312364,0.38037995404661307,0.2554900623964387,0.2809157217151246,1,2,0.7515114257184905,2,1,1,2,1.2441693110231427,1,1,0
77,1,0.7468487765976695,0.3900960846749614,0.26202102975315605,0.2653861291959365,1,2,0.5084260740914033,1,1,2,1,0.8238811592345883,1,1,0
78,1,0.7488641550798064,0.3811558189259707,0.28802778674729873,0.28343639347282423,1,2,0.5999843297504412,1,1,1,2,0.5792061813117471,1,1,0
79,1,0.7461315715922285,0.38192837995042056,0.3247878516508065,0.30589535210383867,1,2,0.5684910453564953,1,1,2,1,0.6394302658809465,1,1,0
80,0,0.7064398974770958,0.4011911415952257,0.3144031872734243,0.2663095261701487,2,1,0.7664933898668096,1,2,1,2,1.239112340623251,2,0,0
81,1,0.6876557829115177,0.4261008232051954,0.30419744227171064,0.2902318670711369,1,2,0.6645930707345542,1,1,1,2,0.538392111837311,1,0,0
82,1,0.7169156273276737,0.4173589214208051,0.3071035303434073,0.3170905414060238,2,1,0.6341264890506864,1,1,1,2,0.7371836945021641,2,1,0
83,1,0.7423514776011688,0.46782820818747706,0.33930344292629,0.379055427699644,1,2,0.796291876482428,1,1,1,2,0.6533460503451352,2,0,0
84,1,0.6993140271255229,0.4685170926400496,0.30211240537372475,0.36126358462308183,1,2,0.7094624200290127,2,2,2,1,0.7851879977934004,1,0,0
85,0,0.6637748919775392,0.4801271283191408,0.3065439490709505,0.36149696981968577,1,2,0.7550745994267345,1,2,1,2,1.4106193063489627,2,0,0
86,0,0.6269780003522034,0.4948783333371647,0.3335271011648322,0.3617753213895752,1,2,0.754080141272425,1,2,1,2,1.4942224994629214,1,0,0
87,0,0.6056623670283763,0.5173733783822078,0.2913890354146762,0.34050053867912866,2,1,0.6176959308577352,1,2,2,1,1.3929718929939554,2,1,0
88,1,0.5739666583031069,0.5161618909963197,0.2653844351206831,0.33886508408713256,2,1,0.7614267762401141,2,2,1,2,1.1770798489633307,2,1,0
89,1,0.6036899367933493,0.5105675838202757,0.27580148371665625,0.3616739532965632,2,1,0.6429590855805145,2,2,2,1,0.7049617434931861,2,0,0
90,0,0.6260805223883233,0.4621560904764064,0.27218817381438054,0.35746598746914904,1,2,0.6490017749601975,1,2,1,2,1.2132916866321466,1,0,0
91,0,0.6060432058663352,0.4441795136283928,0.2512523215905058,0.31488086559146633,1,2,0.5889048604913114,1,2,2,1,1.4773519688787928,1,0,0
92,0,0.62200674157158,0.43005531878332914,0.2761025809559782,0.3098930371596915,1,2,0.5855384689566563,1,2,2,1,1.2344881101962528,2,1,0
93,1,0.6242579305037409,0.4153058889110577,0.2812381738255245,0.3625523316086766,1,2,0.6543724516996008,2,2,2,1,0.7761016637596185,2,0,0
94,1,0.617005613909662,0.4066237342871215,0.28373756212122575,0.37963578556262506,2,1,0.5982922441289702,2,2,2,1,0.5972052712313598,1,1,0
95,0,0.6199246207095654,0.4208037296750239,0.2726972461237871,0.451572866286545,1,2,0.5399663692332979,1,2,1,2,1.7230638954424649,1,0,0
96,1,0.6331796423745691,0.4042781993645306,0.27897698510932667,0.4633864815238332,1,2,0.6627186677869759,1,1,2,1,0.5535431338685157,1,1,0
97,1,0.6483304705109209,0.40227010766297555,0.2567983750969449,0.4539069000177163,1,2,0.5858642293387675,1,1,2,1,0.4846229647519067,1,1,0
98,1,0.6367606059499686,0.3968603126861656,0.27250914074591126,0.4403497759104864,1,2,0.625439143681433,1,1,2,1,0.8213932057406055,1,1,0
99,1,0.6067795415464488,0.39225774054717877,0.28808343399780684,0.4376273887934645,1,2,0.6232064344440005,1,1,2,1,0.5440056774532422,1,0,0
100,1,0.6433249743952475,0.3670135888611725,0.2852607139813539,0.4219845351317013,1,2,0.8837692374909238,1,1,2,1,0.5214561880929978,1,1,0
101,1,0.6265591534405368,0.3646731959534062,0.3082834083266519,0.41607042121119964,1,2,0.5816739442925609,1,1,2,1,0.542180997410469,1,1,0
102,1,0.6786407447316881,0.3656331068560365,0.30487172082941405,0.40547028149345987,2,1,0.9841805815485714,1,1,1,2,0.5553955381983542,1,1,0
103,0,0.6725174216810732,0.3318559188398571,0.30906689432440865,0.3718173190339691,2,1,0.6152314827377268,1,2,1,2,0.8722983133411617,2,1,0
104,0,0.6607032852739132,0.3088071525437548,0.32207696470049746,0.3285967023305416,1,2,0.6452779811916116,2,1,1,2,1.0320064850748167,1,0,0
105,1,0.6653730686969375,0.3433949672287978,0.3014811516170566,0.30547746648095364,2,1,1.0028890516186948,2,2,2,1,0.9500281763175735,2,1,0
106,1,0.6070796674007908,0.32484153189664844,0.27142932170125,0.28426967293393,2,1,0.7718743125442415,2,2,2,1,0.6580133739553276,2,1,0
107,0,0.636726131683117,0.3090930890329018,0.2530718593201906,0.27963008556542657,1,2,0.7947037569429085,2,1,2,1,1.155166210119205,1,0,0
108,1,0.6110841683805992,0.346490106106321,0.2528625653677108,0.26452627083392755,2,1,0.7104526592738694,2,2,2,1,0.6311476348491851,2,0,0
109,1,0.600544936942734,0.31228097539735433,0.28662337808727,0.27106204078142637,2,1,0.7019804784831649,1,1,2,1,0.49528265212939004,2,0,0
110,1,0.5819589758559316,0.2956038486817527,0.29445575136138163,0.2877428350645701,2,1,0.6060607704348513,2,2,1,2,0.5404247240367113,1,0,0
111,1,0.5899793385682334,0.30013450609250825,0.2759078856919017,0.2661561775973458,1,2,0.7631896793318447,2,2,1,2,0.6853220989723923,2,0,0
112,1,0.6565646893184768,0.2848182108568542,0.2782468452859725,0.277653241752597,2,1,0.7226441135608184,1,1,2,1,0.4930023294436978,1,1,0
113,0,0.6614913215440399,0.2511767316463773,0.2654387786673771,0.31021485718476566,1,2,0.6640509403659962,1,2,1,2,1.183777072616067,2,1,0
114,1,0.6172272468503768,0.2807285456692005,0.31768433478069835,0.3122725979193029,2,1,0.780451966162218,2,2,1,2,0.6488896724004007,2,0,0
115,1,0.6564543477625532,0.32038837692097777,0.3005793639312915,0.28411137126872243,1,2,0.6456929414562183,1,1,1,2,0.5819611317529052,1,1,0
116,1,0.6325364700004046,0.32795503541920945,0.30305237847349253,0.3227405144642435,2,1,0.5998761447553989,1,1,1,2,0.49022839388999273,1,1,0
117,1,0.6436615325107023,0.31573383669016497,0.3189599365130052,0.35867239381437793,1,2,0.6078456721479597,1,1,1,2,0.5632782765133015,1,1,0
118,1,0.6689421304889115,0.35203897726313155,0.33611108570664167,0.3583818319579102,1,2,0.6473078812305175,1,1,1,2,0.5191035411735356,1,0,0
119,0,0.6381691995483934,0.3837398360434241,0.34745874514776454,0.34233125931964903,2,1,0.8223373382897989,2,1,1,2,1.3433903187979013,2,1,0
120,1,0.6060566472223066,0.3716561716774658,0.35885566031762367,0.3073406409657222,1,2,0.48260150253554457,1,1,1,2,0.545255982568051,2,0,0
121,1,0.6072191091481584,0.34341671409114194,0.3702018731674929,0.2838533267133396,1,2,0.7303764777498145,2,2,2,1,0.7018502948740206,1,0,0
122,0,0.5956091878942882,0.35877817110502624,0.3829897305184242,0.29595509386707236,1,2,0.9624170154784224,1,2,2,1,1.0712339417586918,2,1,0
123,1,0.6138627349996207,0.3634336554656831,0.37432092774695436,0.2810456024485415,2,1,1.0706559506288613,2,2,2,1,0.9431751542178972,2,0,0
124,1,0.5956008438860243,0.36558222437844523,0.3821804100143253,0.3064737847220595,2,1,0.6133558743858885,1,1,2,1,0.8782138326132554,1,1,0
125,0,0.6056725512350488,0.3806097604735253,0.3761466269958371,0.3146910596480762,2,1,0.7854073812886782,1,2,2,1,1.2886541364932782,1,1,0
126,1,0.5955894312268755,0.4124437954172708,0.3816483930690788,0.26974022764910677,1,2,0.8089311382900632,2,2,2,1,0.7370128285074315,2,0,0
127,1,0.6088802580782561,0.4292833470604372,0.3400074805310651,0.2635139241718041,1,2,0.8745346387840982,1,1,2,1,0.5310994186911557,1,0,0
128,1,0.6456190143264242,0.4291154133560231,0.36449769797555553,0.26976950853050163,2,1,0.7082853431929834,2,2,1,2,0.6164191068564833,1,1,0
129,0,0.5885718613967552,0.42250063882771594,0.3770438223524155,0.25361437393428554,2,1,0.6794834241882199,2,1,2,1,1.4650749309148523,1,1,0
130,1,0.5915407445362738,0.45144617266281195,0.3123063802931221,0.2511309554726153,1,2,0.7730432529024256,1,1,2,1,0.6029860866256058,1,0,0
131,1,0.6502782436685722,0.46900943425689373,0.3044812413920184,0.2535580218540425,1,2,0.9677861854725052,2,2,2,1,0.889998463109805,1,0,0
132,1,0.616923546146692,0.4666532690955998,0.28302792638298735,0.28339783655219963,1,2,0.5580278388006263,1,1,2,1,0.5765497726279136,2,1,0
133,1,0.6740104929903717,0.44931355957886576,0.28431514026281746,0.2750495602619636,2,1,1.0884022070931678,2,2,1,2,1.089020579256612,1,0,0
134,1,0.6437153817299712,0.4603582686960296,0.25917712167841866,0.31601760849036403,1,2,0.7259604808350559,2,2,1,2,0.5546430648573732,2,0,0
135,1,0.6498029027481315,0.4317202699164937,0.27331209654253374,0.3205640285525158,1,2,0.5775020416513144,1,1,2,1,1.1934404937346699,1,0,0
136,0,0.6209289445683217,0.41809259163040635,0.2895078634168238,0.31322781511668296,1,2,0.5911327481080662,1,2,2,1,1.6663620008512225,2,0,0
137,1,0.6194822248250966,0.4643926090497611,0.2902065607441411,0.3229712912137128,2,1,0.7077194060984766,1,1,2,1,0.5070416677990579,2,0,0
138,1,0.5904154583664221,0.44321846350697536,0.2790616988243473,0.32629041454649177,2,1,1.0932090561982477,1,1,1,2,0.7252920844111941,1,1,0
139,0,0.5667857960809106,0.4595183335026446,0.2836045382758355,0.3244447561779171,1,2,0.6484629594488069,1,2,1,2,1.1471120031092141,2,0,0
140,1,0.5233035308078311,0.4403542744379667,0.3025194908151645,0.32141206141961565,2,1,0.7355762885017612,1,1,1,2,0.7002329442875634,1,1,0
141,0,0.5500740961550995,0.46191450942755513,0.30064670275345784,0.3155598188416282,2,1,0.6955556760949548,1,2,2,1,1.495948035040783,1,0,0
142,1,0.5654077107096035,0.41573247663998614,0.3517722051790452,0.34693364788989817,2,1,0.6681149593605369,1,1,1,2,1.018895910368883,1,0,0
143,1,0.5498628238788883,0.4227142713215589,0.3620605659545468,0.3663389741983559,2,1,0.7224569746176712,1,1,1,2,0.6311328686497291,2,0,0
144,1,0.5415026363298387,0.4588497420738564,0.35831036681351813,0.38175334018944534,2,1,0.7256145299361378,2,2,2,1,0.7203276287582412,1,0,0
145,1,0.4809652746933426,0.4621512346699653,0.39149797824341986,0.40345644410350434,1,2,0.6685892857676663,1,1,1,2,0.5063518754577672,1,0,0
146,0,0.4540779021625392,0.42875375321874953,0.41943997751291257,0.3924093926372507,1,2,0.9149207899026806,1,2,2,1,1.376427122791938,2,0,0
147,1,0.476780828299917,0.3914021416665179,0.4047103696659755,0.38967204789654275,2,1,0.8737243060641049,1,1,2,1,0.48709102908105706,2,0,0
148,1,0.48918017857435053,0.4059534710876353,0.42773724035245503,0.4425699124063673,2,1,1.1707740802012268,2,2,2,1,0.7493426028886461,1,0,0
149,1,0.5435876421766715,0.4021686938381799,0.47311021984681917,0.4869697242398247,2,1,1.0361877295908926,2,2,1,2,0.5962442630334408,2,0,0
