trial,common,reward.1.1,reward.1.2,reward.2.1,reward.2.2,isymbol_lft,isymbol_rgt,rt1,choice1,final_state,fsymbol_lft,fsymbol_rgt,rt2,choice2,reward,slow
0,1,0.7370678413548262,0.6214291178814628,0.4286366392954507,0.2784070191902214,2,1,1.018846187456802,1,1,2,1,0.935901446180651,1,0,0
1,0,0.7253292426745421,0.5952679846867954,0.3996500790699842,0.2717388435199075,1,2,1.1119136087108927,2,1,1,2,1.2597581959926174,2,1,0
2,0,0.7319823561973995,0.5681861233086718,0.40145589833769313,0.27685644209122856,2,1,0.9793351595217246,1,2,1,2,1.3972372144307883,2,0,0
3,1,0.7446592331280963,0.5957128989131909,0.3852003451045032,0.2741560462507089,2,1,0.8390840136344195,2,2,2,1,1.3567889850201027,1,0,0
4,1,0.7445060112562437,0.6332563878822494,0.4266921434348594,0.2601608200755967,2,1,0.8067068668824504,1,1,2,1,1.3417521750016022,2,0,0
5,1,0.7290388499105183,0.5997215785892509,0.4144132073278892,0.2617659714055216,1,2,0.7632454292579496,1,1,2,1,0.7416162657173118,1,0,0
6,0,0.7346230325738957,0.6487946742579139,0.37509730427227095,0.2528346206478089,2,1,0.8102950527209032,2,1,1,2,1.1161909841830493,2,1,0
7,1,0.6796266360605727,0.7108122368468706,0.42769318512053317,0.2526669954593017,1,2,0.8236662960043759,2,2,1,2,1.1171031735248107,2,0,0
8,1,0.6896086687044694,0.6952465267775474,0.4166469435587785,0.28191524173490234,2,1,0.6589978875308589,1,1,1,2,0.8159800385146809,2,1,0
9,1,0.6954798595143483,0.7265133826879263,0.40327822988611683,0.2869985265140435,1,2,0.680720469867083,1,1,1,2,0.6179309846047545,2,0,0
10,0,0.6805279182436337,0.7040985430714901,0.3671526917242631,0.2817270728224146,2,1,0.7835411148189451,2,1,2,1,0.8554603286538622,1,1,0
11,1,0.6735097424389389,0.6733398147202694,0.40315676310519827,0.25490873070581044,1,2,0.9683548347238684,1,1,2,1,0.8079815814271569,1,1,0
12,0,0.6776572157869898,0.6697018915282995,0.39042471002483703,0.25053571887566495,1,2,0.6838439725288481,1,2,1,2,1.4048219166543277,1,0,0
13,1,0.6734913521214427,0.7076930501180569,0.34621846251223065,0.2713283358856605,1,2,0.7159610534035892,1,1,1,2,0.9338543691337691,1,1,0
14,1,0.6453058276515637,0.700032241293032,0.3198705516466416,0.2714602522707624,1,2,0.6848477725652629,1,1,1,2,0.9408701207503327,1,1,0
15,1,0.687892476307608,0.7143295554473061,0.27231807377680806,0.2627011085834816,2,1,0.7257326595099585,1,1,1,2,1.0019039353428525,1,1,0
16,1,0.680122564733799,0.7091430650500277,0.28790614089727296,0.27887655047756627,2,1,0.6381350594747346,1,1,2,1,0.9331775348873634,1,1,0
17,1,0.6368135703222833,0.6693078361772504,0.27797415960110183,0.33679425778708094,1,2,0.6994346656065318,1,1,1,2,0.8595927543174184,1,1,0
18,0,0.6271273604995966,0.6914067035409672,0.2534677928533924,0.3060820822358108,2,1,0.7270230443064065,1,2,1,2,1.359640367765678,1,0,0
19,0,0.6346283017571092,0.6806835960390067,0.2647158449169474,0.2792744301954275,2,1,0.7057223533083743,1,2,2,1,1.220210403236706,2,0,0
20,0,0.6260334328546258,0.6717144061614597,0.2609280165927619,0.32416968356004483,1,2,0.8058932193016517,1,2,2,1,1.4592766371642938,1,0,0
21,0,0.6381074174736633,0.6724466373154974,0.2867381010033715,0.34412443006508603,2,1,0.898331721105933,2,1,1,2,1.0611896130358218,1,1,0
22,1,0.6274681184910031,0.6675227540302291,0.3427500238897891,0.30368561297932417,2,1,0.7426324211446627,2,2,1,2,1.3483192150415562,2,1,0
23,1,0.610674684327122,0.6515220371346291,0.3133625335667358,0.2937216573069117,1,2,0.8943855303332384,2,2,1,2,0.8487362847627082,2,0,0
24,1,0.619907235795134,0.6635179962385929,0.316929899881846,0.27638693046981366,1,2,0.9079128734119877,1,1,1,2,0.9001099931010685,1,0,0
25,1,0.6066790506252662,0.6330966888446095,0.314691910051883,0.3289513295868121,2,1,0.7035288197002956,1,1,1,2,0.7859790440561483,2,1,0
26,1,0.5841960999219507,0.6431664423968886,0.3214903483174672,0.33092110049965534,2,1,0.6284176965345978,1,1,2,1,1.1002425875194604,2,0,0
27,0,0.5695014137364378,0.6350520544563372,0.2930119123791717,0.3293784076445492,1,2,0.7931569224820123,2,1,2,1,1.547853326464974,2,1,0
28,1,0.5646986351423318,0.6144308847275373,0.31955167516451116,0.33998799608875824,2,1,0.7305603018321563,1,1,1,2,0.768801436839567,2,0,0
29,1,0.5921778633706624,0.6549743214741978,0.3380076831181872,0.3619824182080413,1,2,0.779490957964299,2,2,2,1,1.0771199286427873,2,1,0
30,1,0.5840768813163013,0.6574830005259322,0.377572992062253,0.37861136314728827,2,1,0.7113708756369306,2,2,2,1,0.7988310596410884,2,1,0
31,1,0.6130676277965965,0.6843412823573943,0.34922768114573555,0.3549639222468941,2,1,0.893928380930447,2,2,2,1,0.7237145121580397,2,0,0
32,1,0.6617154854010595,0.6958112081011929,0.36400587233806075,0.3233602549385368,1,2,1.0084372240744415,2,2,2,1,1.164917324364069,1,1,0
33,0,0.6786675554098479,0.6819952748859559,0.33258339860226216,0.3140990239414472,2,1,0.7203556543972809,2,1,1,2,1.4343729941319907,1,1,0
34,1,0.6664511759255227,0.6602992723598842,0.3766901063514107,0.2897085446230916,1,2,0.6351326998919831,1,1,1,2,0.8650848754950857,1,0,0
35,1,0.6934342734679979,0.6325174881304596,0.36945765797446506,0.31227774804951003,1,2,1.1635299045628926,2,2,1,2,0.9749438733852003,1,0,0
36,1,0.6749075425325839,0.662939089616079,0.3665370842263127,0.30852814453129507,2,1,0.7919237943679036,1,1,2,1,1.369420411705505,2,0,0
37,1,0.6953788805562625,0.6878588262627338,0.35712915240079424,0.32278177370796557,1,2,0.8731463149306364,1,1,1,2,0.6239676469594997,1,1,0
38,1,0.7325513092244703,0.7012075353452157,0.32176012538292253,0.3303457216314122,1,2,0.8285942881921073,1,1,1,2,0.8269715132955753,1,1,0
39,1,0.7120871770227457,0.6620158906436404,0.36176338519759565,0.3291225353622069,2,1,0.7027902085028472,1,1,1,2,0.8083778579348291,1,0,0
40,0,0.715158779070369,0.6573990836005699,0.378809933329612,0.3347618972850657,2,1,0.7646816679152835,2,1,1,2,,,0,1
41,1,0.7231004213865477,0.6648997225706061,0.387324421902759,0.32867548186154494,2,1,0.721835588945396,2,2,2,1,0.8278601972633624,2,0,0
42,0,0.6880599509728524,0.6622634243762948,0.361656736878591,0.3470124256094842,1,2,0.6770277152463677,2,1,1,2,1.4171321032190463,2,1,0
43,0,0.6441033231571804,0.6558212214938424,0.3968004410599362,0.342125418255963,2,1,0.6103269959203317,1,2,2,1,1.1411328987851448,1,0,0
44,1,0.6521909830659263,0.6647238986417073,0.3862601048212593,0.34830433138331324,2,1,0.6183881340039079,1,1,2,1,0.9235330988813075,2,0,0
45,1,0.6888244653050276,0.6839672138021677,0.4064279839815429,0.35330320480486266,1,2,0.619327746284398,1,1,2,1,0.9166056430985918,1,0,0
46,1,0.6505559737547331,0.6957113973330804,0.42500497961459194,0.33954816482492767,2,1,0.7393413673526084,2,2,2,1,0.6813237744790968,2,1,0
47,1,0.6466743187302333,0.6703741130478225,0.4293180566975403,0.34786003707574603,2,1,0.5567633701903105,2,2,2,1,0.7726831385116384,2,0,0
48,1,0.6457746469764152,0.621028007181615,0.41620123217142924,0.36620940785325357,2,1,0.5707563004980329,1,1,1,2,0.8606074029885349,2,1,0
49,1,0.6745336283232908,0.634431130199658,0.3914162632048732,0.3781908568219443,1,2,0.6905695231725986,1,1,2,1,0.7130720017848944,2,1,0
50,0,0.6673989538192604,0.6477413030821908,0.4100287290112233,0.41617692130598155,1,2,0.7129828019023989,1,2,1,2,0.9966209517260722,2,1,0
51,1,0.6771502048379562,0.6408007359646066,0.42208451688532445,0.4293832742366242,2,1,0.6256136258853076,2,2,2,1,0.7308824460051255,2,0,0
52,1,0.6796027170864541,0.6611864495095687,0.4152516535392201,0.4328249720484656,2,1,0.6709280705399578,1,1,1,2,0.8580995603297197,2,1,0
53,1,0.6477445810174944,0.691393535604462,0.3942213604691336,0.4163339645935873,2,1,0.7233607261368888,1,1,2,1,0.8405901657133654,2,1,0
54,1,0.6710511199086501,0.7157331007465912,0.4040526501496814,0.3488362386399717,1,2,0.6534310313109017,1,1,1,2,0.7252456763671944,2,0,0
55,1,0.6507736180247772,0.7113207657903615,0.4345663313548039,0.36469980410425373,2,1,0.7492952907887229,1,1,2,1,0.7222291532962117,2,1,0
56,1,0.6538321003170146,0.7301442135122402,0.4024388142909907,0.3494786339787199,1,2,0.6089962300975458,1,1,2,1,0.5872980571912194,2,1,0
57,1,0.6466425615717144,0.6983592434655339,0.3918744073724465,0.3684214877518889,1,2,0.7404557631853095,1,1,2,1,0.6519098116841633,2,0,0
58,1,0.6678289936087877,0.7300799582144138,0.35763180134761074,0.3838297397043677,2,1,0.6465264782018494,1,1,2,1,0.6791157760235365,2,1,0
59,0,0.6380360924677451,0.7194950849896196,0.3782683660148563,0.4260934601865083,2,1,0.6018195570759417,1,2,2,1,1.208651183253096,2,1,0
60,1,0.6829756219179339,0.7261100625838491,0.362813934696923,0.4174383938547013,1,2,0.6139441114501096,1,1,1,2,0.8199714319307532,2,1,0
61,0,0.6979196550677228,0.7438476614976959,0.34242299897388784,0.48244856737338654,2,1,0.7029493218069547,1,2,2,1,1.1779866139913793,2,1,0
62,0,0.7181120074940495,0.7423960155024696,0.37644470978321826,0.53191024761462,1,2,0.6311720442754449,1,2,1,2,0.9974047655668983,2,0,0
63,1,0.7144128496408437,0.7351195065365705,0.4162062233366062,0.5321213561775101,1,2,0.6182540328300092,1,1,2,1,0.8913238046152401,2,0,0
64,0,0.7457289704957357,0.6948909292442118,0.417627278352393,0.5738237914870105,1,2,0.6247818972442474,2,1,1,2,1.3650996416945418,2,1,0
65,1,0.7329097937210887,0.70298516180142,0.44094542716908997,0.6072321527393236,1,2,0.6334198210606701,1,1,1,2,0.618052730391355,2,1,0
66,1,0.7293400466508252,0.6926238529042563,0.4452150454849019,0.6081008857311908,1,2,0.7767552939803863,1,1,2,1,0.6271414752336568,2,1,0
67,1,0.7469694436292705,0.6863389401685909,0.46895107685284665,0.5639871702062194,1,2,0.6462814798760519,1,1,1,2,0.6045681791474635,2,0,0
68,1,0.7173154569472622,0.6572821472468067,0.5046442965864354,0.547108468718964,2,1,0.69102426176687,1,1,1,2,0.6321200943821168,2,0,0
69,1,0.7446217146147296,0.6144038519581818,0.5200219992936934,0.5180490571547365,2,1,0.6299690512569214,2,2,1,2,0.8952259981524548,1,0,0
70,1,0.7355045946144761,0.6306847374497508,0.5110815386762326,0.5606151069945817,2,1,0.6819523925769317,2,2,2,1,1.0163380434496503,2,1,0
71,1,0.7140270124351973,0.6275640606873139,0.5468291803002574,0.5577041029491268,2,1,0.5742887364067428,2,2,2,1,0.7530151669961924,2,0,0
72,0,0.7264499316696468,0.5804646763774204,0.5310248374090556,0.6061565650887253,1,2,0.6430853516321804,1,2,2,1,1.3892755221677362,1,1,0
73,0,0.7054536343424984,0.576039680461111,0.5096932694496314,0.5854746646254663,1,2,0.6656688936491264,2,1,2,1,1.1307173056811735,1,1,0
74,1,0.69890581314257,0.5815172565601847,0.4624090359779989,0.5618840326114629,2,1,0.5212102857112768,1,1,1,2,0.7856005472531251,1,1,0
75,1,0.7075623800532511,0.557309133434329,0.44331094118180836,0.5433217839162763,1,2,0.85148611223849,1,1,2,1,0.8833292650961084,1,0,0
76,1,0.7456617931327907,0.5445186462094624,0.4815303037039055,0.5289312082176418,1,2,0.5991076998179778,1,1,1,2,0.8686751707900839,1,1,0
77,0,0.725667332973954,0.5448612709483045,0.47145119658610035,0.5041416201768258,2,1,0.7041405621384911,1,2,1,2,1.1028995988999668,1,0,0
78,0,0.7343821759653554,0.597731172558641,0.48139209752873824,0.4433573048692141,1,2,0.879343898697698,1,2,1,2,1.156195323634165,2,0,0
79,1,0.7223393350826249,0.6070305292684068,0.5036298594042373,0.43177843892803347,2,1,0.6703485726502549,1,1,2,1,1.2010173608287005,1,1,0
80,1,0.700140369243712,0.6297018505321783,0.5099566394261719,0.45090196125048543,2,1,0.7279810389991326,1,1,2,1,0.9761875487820362,1,1,0
81,1,0.6891216211059965,0.6492424376206244,0.49264773032340536,0.4520563853630993,1,2,0.9386967776554229,1,1,1,2,0.8660570336796809,1,0,0
82,1,0.7112658885839862,0.6358066909607114,0.5190791685012442,0.430827580619092,1,2,0.6060818650039437,1,1,1,2,0.5911604723987693,1,1,0
83,1,0.7022942131258163,0.6955084400115634,0.5128558625721749,0.46361101715995645,2,1,0.7165393458853941,1,1,1,2,0.7595553868013667,1,1,0
84,0,0.7136712971886914,0.6533193394117465,0.5301979249532013,0.4986803254833236,1,2,0.592221227765549,1,2,2,1,1.2294700140701025,2,1,0
85,1,0.7486524697659448,0.6784956643831863,0.5285754602091401,0.45074902540795136,1,2,0.6000943228500546,1,1,1,2,0.8887900457775686,1,1,0
86,0,0.7203937052457141,0.7032299612533671,0.5129951422034273,0.4061480928566885,2,1,0.8194425609981408,1,2,2,1,1.0263046236250375,2,0,0
87,1,0.689174403170131,0.7299730938087535,0.5511513780412586,0.4161567696726524,2,1,0.7171833328829962,1,1,2,1,1.0429735504258133,1,0,0
88,1,0.7090102946894824,0.694029993402761,0.5541208877454428,0.4063205324190722,1,2,0.646085903103085,1,1,1,2,1.0028860381098639,2,0,0
89,1,0.7047148661996938,0.6859293612469775,0.6041010804988755,0.41717508176372203,2,1,0.6704856873366225,2,2,2,1,0.8589379186887527,2,0,0
90,0,0.6816804050059471,0.6783706822728304,0.5942284364508983,0.40341665027639717,1,2,0.5629576390965667,2,1,1,2,1.4462519474800501,1,1,0
91,1,0.6724487505741776,0.6497861226619674,0.5621708041635722,0.4365469669204964,2,1,0.6477659346855944,1,1,1,2,0.8062228972485173,1,1,0
92,0,0.6953935180527814,0.6479916895983222,0.5456251858735492,0.4946423852470963,2,1,0.6756951413190109,1,2,1,2,1.4702675092448771,1,1,0
93,1,0.7089068994665665,0.6908444296430313,0.5200692509913947,0.5091103787573592,1,2,0.6229743942094501,1,1,1,2,0.8921329319346114,1,0,0
94,0,0.6875009138996715,0.6850357543290855,0.5476913149871139,0.4948126497447931,2,1,0.6257190987198555,1,2,1,2,1.1038844138238346,1,1,0
95,0,0.6909794616713311,0.6991488396380062,0.5221288802710564,0.5167889960419894,1,2,1.0289031729225826,2,1,2,1,1.1033552415465238,1,1,0
96,0,0.6651968550391629,0.748483330506195,0.5475761728510411,0.5029469184765578,2,1,0.7486048957471212,2,1,1,2,0.8610781131792464,1,1,0
97,1,0.663782268600662,0.7257804527977565,0.4775560225630078,0.47245708832876976,1,2,0.6405940832737542,1,1,2,1,0.6308209704111505,1,1,0
98,1,0.7039459461957182,0.7311039886146501,0.4613052126103847,0.46755804417488234,1,2,0.8092511730101251,1,1,1,2,0.7952386548931827,1,0,0
99,1,0.7109608187669981,0.7280426339574833,0.49948844410495746,0.496348463075955,1,2,0.7426224765658844,1,1,1,2,0.7100256449666631,1,1,0
100,1,0.6933500216363175,0.749579868252203,0.4530523898554992,0.44993064443692043,2,1,0.8111870515531336,1,1,1,2,0.5801108368832502,1,1,0
101,1,0.710491893316316,0.7381874017693767,0.43150895190042116,0.4433822923398485,2,1,0.6184770325380669,1,1,1,2,0.7380407366217696,1,1,0
102,0,0.7193194566514558,0.7209477083334377,0.423741310226609,0.4225357524851916,1,2,0.6065049617427576,1,2,1,2,1.068254183504905,2,0,0
103,1,0.7063823221906329,0.7420422309968773,0.4196825535316935,0.4305703176078231,1,2,0.6500670505884045,1,1,2,1,0.6430362314240483,1,1,0
104,1,0.7423952056319545,0.7015318310229297,0.41152681152448745,0.444839747385897,2,1,0.5709184273073333,1,1,1,2,0.5192753112205537,1,1,0
105,1,0.7301976538870367,0.7276414279236929,0.39829003552540465,0.4704983886419469,2,1,0.7491620936671097,1,1,1,2,0.7235734799105558,1,0,0
106,0,0.7488498425440658,0.7170031731608515,0.38414779819629397,0.4710016852842915,2,1,0.5903389896884619,1,2,1,2,1.2241270616177644,1,1,0
107,1,0.7393977407494127,0.7010172837385029,0.39308126399062954,0.5029722237942742,1,2,0.5535955689338152,1,1,1,2,0.5113310973101761,1,1,0
108,0,0.723118288495765,0.7320179839991502,0.36082868791454215,0.4758887622268846,2,1,0.7127772805506538,1,2,2,1,0.9781342759561085,1,0,0
109,0,0.7370091915483159,0.713617537435008,0.3729463480368703,0.4637631549393433,2,1,0.5294986424123636,1,2,2,1,1.169351402335451,2,0,0
110,1,0.6973409831827668,0.7412657426838862,0.3810797153225575,0.4374041561431854,2,1,0.5357899463306239,1,1,1,2,0.5480733126605628,1,1,0
111,1,0.7480467466322078,0.6931989067329183,0.36551809581147987,0.3792330112048947,2,1,0.6459813343244605,1,1,1,2,0.5041016878676601,1,1,0
112,0,0.7301499949585697,0.6911719996519017,0.38282785365624195,0.3651476008915404,2,1,0.5957181042613229,1,2,2,1,0.9669767568011594,1,1,0
113,0,0.7308047935766916,0.7099362521382774,0.4133943118562484,0.39299779895438397,1,2,0.8511455856605608,1,2,1,2,1.0206108986603795,1,0,0
114,0,0.7484980836959919,0.7381223067458386,0.449987767046479,0.35789970072235633,1,2,0.5887484593440604,1,2,1,2,1.2030650405795313,1,1,0
115,0,0.7286460613939405,0.7261414331798908,0.4027002866923348,0.32998059595331064,1,2,0.6141128679846588,1,2,2,1,1.0673676089936635,1,0,0
116,0,0.7366229823548303,0.7375392225405905,0.40744728404490144,0.3372954514197587,2,1,0.6328590069279016,1,2,1,2,0.8611040293617407,1,1,0
117,1,0.7319447937954193,0.7388357665846704,0.40104571288963164,0.33733273407251946,1,2,0.5998267232025682,2,2,2,1,0.8862577936888556,1,0,0
118,1,0.6963815673216582,0.7432523506693294,0.4295386570795038,0.3744719096692838,1,2,0.672582788640284,1,1,2,1,0.8982051537059306,1,1,0
119,1,0.7205269128866213,0.7070787797019777,0.43591347678936304,0.39643013008386907,2,1,0.8711977796447172,1,1,2,1,0.8743592525279382,1,1,0
120,1,0.7350281585968358,0.7101835805097902,0.4403534394491514,0.4141325061273612,1,2,0.7322312928881729,1,1,2,1,0.72660446782902,1,1,0
121,1,0.73711856354959,0.7459538129963013,0.4244738743898042,0.4255456290842003,2,1,0.5924261464133451,1,1,2,1,0.5729974475580093,1,0,0
122,1,0.7124208263378806,0.7480590818179124,0.4410243199443199,0.4084580285729389,2,1,0.5781228246232786,1,1,2,1,0.6159420682924974,1,1,0
123,1,0.7167455189672243,0.7378585575810882,0.4380542595357082,0.4302227953863994,1,2,0.6497925198673329,1,1,1,2,0.6470176802613423,1,1,0
124,0,0.7094716849429541,0.7371619569154295,0.43382620078197176,0.4328376114052917,2,1,0.6272647277764918,1,2,2,1,1.1652325374670909,1,0,0
125,0,0.6816935134542441,0.7446673262784549,0.45759952486790917,0.4227639434413397,2,1,0.6446578009199584,1,2,1,2,0.9908419444363972,2,1,0
126,1,0.6668150799198975,0.7351058635402634,0.466812753310201,0.45536515475104333,1,2,0.6810787761532993,1,1,2,1,0.8117725764604984,1,1,0
127,1,0.6231039356076646,0.728610519288893,0.4334459146408689,0.45776604444341407,2,1,0.6546578310590121,1,1,2,1,0.8101510069645883,1,1,0
128,1,0.5994379024320606,0.7137268280432416,0.43279826918506803,0.45536827486136344,1,2,0.6570586941270449,1,1,2,1,0.6853968340074061,1,0,0
129,0,0.6293943109485358,0.7400547924796299,0.44536439929890403,0.44534559557566045,1,2,0.6739033085323172,1,2,2,1,1.4250058010038629,1,1,0
130,0,0.6427676037445361,0.7424772430846689,0.488875328275998,0.48205546923483983,2,1,0.56418745234987,1,2,2,1,0.9630396065549576,1,1,0
131,1,0.666094702500983,0.7403774313855234,0.5084143982630082,0.5150717610465145,1,2,0.5593462492361141,1,1,2,1,0.6841221194590617,1,0,0
132,1,0.6388795158923766,0.7262139543079709,0.4834534918462139,0.5176272158744748,1,2,0.7403243741719052,2,2,1,2,0.8475926578867075,1,0,0
133,1,0.6773754926394895,0.7410712289721626,0.4718161930101221,0.5131228800774772,1,2,0.5431380880472716,1,1,2,1,0.9688674327007902,2,1,0
134,1,0.6792094011603547,0.6788749988331437,0.45536612448340175,0.49061623647575536,1,2,0.5525613324534788,1,1,1,2,0.7291065848185099,2,1,0
135,1,0.6950223036879077,0.6449249037630276,0.4372725505119326,0.5056813013677255,1,2,0.7555890055118653,1,1,1,2,0.8574492449661193,2,1,0
136,1,0.6822382999128895,0.6538475669688049,0.45127271673033265,0.5078276541297944,2,1,0.6059366138397309,1,1,1,2,0.726027380747837,2,0,0
137,1,0.7076506707816527,0.6361045577694058,0.4730678128757316,0.529839896485049,1,2,0.5769463504911982,1,1,2,1,0.6199837873173237,2,0,0
138,1,0.7341028369439969,0.6360179726812971,0.46884542735615886,0.5396116849375416,2,1,0.8343633509030042,2,2,1,2,0.7043204686597164,2,1,0
139,1,0.7438622844532831,0.6506049537623374,0.46395282631510293,0.4707022801284799,1,2,0.6161976139046601,2,2,1,2,0.8449642748455517,2,1,0
140,1,0.7495707978837144,0.6035222595188385,0.4579618366695022,0.49412375535586395,1,2,0.6834953094730736,2,2,1,2,0.7329708081306308,2,0,0
141,1,0.7475358429293445,0.5984752970528198,0.4552765748064205,0.49751296640295256,2,1,0.7091592609649524,2,2,1,2,0.7881635371377342,2,0,0
142,0,0.7417130144881692,0.5787576900423479,0.49620944253822236,0.49210413401341735,2,1,0.7268585066849482,1,2,2,1,1.2009188190640998,1,1,0
143,1,0.7257447267851551,0.5853740216282339,0.4539212497819445,0.49019584234303926,2,1,0.6645584153775417,2,2,1,2,0.8096118901048612,1,0,0
144,1,0.7413949452666323,0.5933098750795601,0.40032029243520073,0.48996046587364717,2,1,0.963253264384548,1,1,1,2,0.5271981292098644,1,1,0
145,1,0.7245205521275906,0.6012146084852549,0.46147396594559303,0.5387805594132342,2,1,0.7380054785608081,1,1,1,2,0.7861369519559958,1,1,0
146,1,0.741174104784276,0.54683986386362,0.48475882306446494,0.5542753634086156,2,1,0.9880137657128216,1,1,2,1,0.7787463197491888,1,1,0
147,0,0.7416793754108214,0.5084179549826002,0.4748085559486199,0.5453589026468753,1,2,0.7388489598852175,1,2,1,2,1.1044376941827068,1,0,0
148,1,0.7444964278323483,0.5178735089493145,0.47772709357499427,0.5374062579908181,1,2,0.6324331980285933,1,1,2,1,0.5581745967174356,1,1,0
149,1,0.70392060853834,0.5073741186503598,0.46348955992167595,0.5776359357685931,2,1,0.5684446373088576,1,1,1,2,0.5174009082729754,1,0,0
