trial,common,reward.1.1,reward.1.2,reward.2.1,reward.2.2,isymbol_lft,isymbol_rgt,rt1,choice1,final_state,fsymbol_lft,fsymbol_rgt,rt2,choice2,reward,slow
0,0,0.5467148673745992,0.36729047158390044,0.5743024634930503,0.2783159841791681,2,1,,,,,,,,0,1
1,1,0.5656318654565593,0.3929948359824679,0.5786761752170493,0.2665955439076775,2,1,0.7318996670692286,2,2,1,2,0.9958959037976456,2,0,0
2,1,0.539362087186511,0.3963071026908346,0.53663866907779,0.2517586382637622,1,2,1.106426245001785,1,1,2,1,0.8660881535397493,1,0,0
3,1,0.5403672290930853,0.40510873880783094,0.5418778603644157,0.26684243215239317,1,2,0.8636011055968993,1,1,1,2,0.9298946598246403,2,0,0
4,1,0.517952012544669,0.37791326563417593,0.556261778775367,0.26900835457646505,1,2,0.7314979664879502,2,2,1,2,1.0579919430856535,1,1,0
5,1,0.5592823484617425,0.4105465373781214,0.6037409633694262,0.30599225371393823,1,2,0.6546399581493461,2,2,2,1,1.0307829816374579,1,1,0
6,0,0.5803209127852976,0.41842759746961683,0.580896070629747,0.30200333428062853,2,1,0.8686948377398949,2,1,1,2,1.251410020271578,2,0,0
7,0,0.5598353041584248,0.4056262928723653,0.5343377054520482,0.28294851058796144,2,1,1.1054845238286362,1,2,1,2,1.4894243959097366,1,0,0
8,0,0.5509124360147475,0.3970885429406179,0.5687875346154373,0.3333543586871496,1,2,1.2457581864946405,1,2,2,1,1.0066107319471485,2,1,0
9,0,0.5765941197389254,0.385268770754702,0.5839071559990414,0.3463594115933892,2,1,0.7840854847781884,1,2,1,2,0.6731546483970305,2,0,0
10,1,0.5562428683852572,0.43165310571370624,0.5983179236401626,0.35530807647436446,1,2,1.3630595782560704,2,2,2,1,1.4060068852631957,2,1,0
11,1,0.5951774440007978,0.4120478951788604,0.6011662156754639,0.37604672032888004,1,2,1.196651872352959,2,2,1,2,0.9150582571310224,2,0,0
12,1,0.5610665140024538,0.4202736745911691,0.5850303119767151,0.3732899393961022,2,1,1.4395924291056872,1,1,2,1,1.5560892142966622,2,0,0
13,0,0.5825691105796084,0.4053402955180825,0.538585271617871,0.34323416250782346,1,2,0.680663707000349,2,1,1,2,,,0,1
14,0,0.5702554996856444,0.39489732421625945,0.5543407206116239,0.36007130231416,1,2,1.167565796928102,2,1,2,1,1.1722879635708523,2,1,0
15,1,0.5450882394025509,0.38976149000130667,0.5622495968177973,0.382428649428887,1,2,0.5745508668042021,2,2,1,2,1.4287841822188057,2,1,0
16,0,0.5409451772801239,0.39647866959203437,0.547686662774042,0.338320894317643,1,2,0.6783134723118565,2,1,1,2,1.3530125434263027,2,1,0
17,0,0.5483285972218099,0.3973875509761858,0.5476057617393675,0.3322251679176922,2,1,0.8607427934985026,2,1,1,2,1.0039609545819985,2,1,0
18,0,0.5661236844286315,0.39547073199975324,0.538955228213204,0.39829967334791927,1,2,0.7152816785965115,2,1,2,1,1.3144303023873363,2,0,0
19,0,0.6043063548091129,0.39142993825961203,0.5501826357243524,0.3705191803389374,2,1,0.9539385340867739,1,2,1,2,1.059187401609961,2,1,0
20,1,0.5612163125424399,0.37987331205862085,0.5523492804800733,0.40287779027011095,1,2,0.7104507243275293,1,1,2,1,1.3073886388337996,2,1,0
21,0,0.5615319872919685,0.368521847150586,0.5349412334021428,0.3964878467985997,1,2,1.116259320780955,1,2,2,1,0.8419068633229472,2,0,0
22,1,0.5108443768392616,0.3499467574654882,0.5631552801404055,0.4718785613258239,1,2,0.718504625132482,2,2,2,1,1.0538251659236266,2,0,0
23,0,0.5625071896216759,0.3108927685091132,0.5707378735597243,0.44276929701989864,2,1,1.095138549033436,2,1,2,1,1.025863430240861,2,0,0
24,1,0.5886514607253521,0.3169979291633475,0.6132759713427288,0.43791248595384547,2,1,1.1182681250429596,1,1,2,1,1.1076286345924018,1,1,0
25,1,0.5419549479126868,0.32109199719337844,0.5960594988700167,0.45137404720255625,1,2,0.8802419967250898,1,1,1,2,0.9241195735739893,1,1,0
26,1,0.5364606771821014,0.33740123327872096,0.6012359737622958,0.4109499794723206,1,2,1.049847637048515,1,1,1,2,1.402037191506679,1,1,0
27,1,0.5640987042040283,0.3419984220015929,0.5913457015531045,0.40963818736740265,2,1,0.9113700249981775,1,1,2,1,0.8791260948055424,1,1,0
28,1,0.5453478745181588,0.30664168595506025,0.6004403577905486,0.3985113104296345,1,2,1.0074961005229852,1,1,2,1,0.8545910187822301,1,0,0
29,1,0.5651557796075142,0.2805104071496838,0.6428624549739163,0.39270668412437315,2,1,0.8687445606155961,2,2,1,2,1.0457727718712704,2,1,0
30,1,0.5997884924848548,0.2839066225485557,0.6337137969766689,0.36159502750206207,2,1,0.7564941091950459,2,2,1,2,0.7328459085038048,2,1,0
31,1,0.634677402558183,0.29406510711630357,0.648016073257503,0.31974425288302877,2,1,1.7077424849121599,2,2,1,2,0.8620639152941294,2,0,0
32,0,0.6386114293390827,0.2793643719143608,0.6655641234218747,0.30959627976139803,1,2,0.9108655638046912,1,2,2,1,1.123069245586521,1,1,0
33,1,0.6445397035850733,0.29933004785011214,0.6623126820712966,0.35641178406572993,1,2,0.8870923025388038,2,2,2,1,0.9970356124322279,1,1,0
34,0,0.6556530044751071,0.2744103396613151,0.6599632744428625,0.3686672306687447,1,2,0.7868139146921749,2,1,1,2,1.6917383479703858,2,0,0
35,1,0.641138349016791,0.2684570703790645,0.678211521847876,0.3578857350598552,1,2,0.6432534191262675,1,1,2,1,1.2990590020708623,2,0,0
36,0,0.6340117016415343,0.2867128829451231,0.6817962867812526,0.3862604452682272,1,2,0.9784751168626826,2,1,2,1,0.8218405179395631,1,1,0
37,0,0.6849138248719605,0.32691302445583587,0.7095686154840164,0.39860103653261214,2,1,0.8045655847745365,2,1,2,1,0.9987873644822685,1,0,0
38,1,0.7188508729950056,0.3336995391547202,0.7201432279369112,0.3915966244967857,1,2,1.0290092309769534,1,1,2,1,0.8491450075816829,2,0,0
39,1,0.6648369672343399,0.28919440164447785,0.7285794543148272,0.3807816747915269,1,2,0.8198283988131152,2,2,2,1,1.4027022726659197,2,0,0
40,1,0.6848985934104056,0.2562393994208523,0.7419796311764253,0.3721728572269041,1,2,0.6965632752253441,2,2,1,2,1.0381868688200484,1,0,0
41,1,0.6909019119041943,0.25278087403774796,0.7374075215533886,0.38834946367695194,2,1,1.6980121697524737,1,1,1,2,1.072104199865862,2,0,0
42,1,0.6771882015014092,0.3008444856711131,0.7054848261053864,0.36557590315467214,2,1,1.3804457098485727,1,1,2,1,1.1651393204883789,1,1,0
43,0,0.7484588674127195,0.3010439252777489,0.7150739786166396,0.32506209815446363,1,2,0.8977025619642518,1,2,1,2,1.8560483511319035,1,0,0
44,0,0.7447699313449556,0.2948488940495746,0.7229703954693317,0.3455483497142953,2,1,1.0296004811971216,2,1,2,1,1.0302577272341296,1,0,0
45,1,0.7354623949801695,0.25866983041752656,0.6706384376234158,0.32596031089202815,2,1,1.3686213081527967,2,2,1,2,1.2647179718369443,1,1,0
46,1,0.7443239858697479,0.2545934084025834,0.642921452960854,0.33448672928364326,1,2,0.9399254217096313,2,2,2,1,0.8349079915824404,1,0,0
47,1,0.7135939761260482,0.2990365854428052,0.6653220308206605,0.31630245442715044,2,1,1.3127822149981512,1,1,2,1,0.9771214491847786,1,0,0
48,1,0.706092933710353,0.2515998169830749,0.6635318222674771,0.3342447152837679,2,1,0.6680500676229713,1,1,2,1,0.8650225771998521,2,0,0
49,0,0.7127410015051604,0.27051614862514184,0.632614133141747,0.3335173480111726,1,2,0.9439370032232546,2,1,2,1,1.1774874698348867,1,1,0
50,0,0.7320714815119459,0.2831032705531212,0.6392380403817332,0.36208607267006665,1,2,1.0739219477400184,2,1,1,2,0.8889814705435128,1,1,0
51,1,0.7332248870775849,0.28747346389090017,0.677699027844502,0.32166600347852103,1,2,0.5486600136428024,2,2,1,2,1.1860334764569416,2,1,0
52,0,0.7339457537852845,0.30760864549232564,0.7111918082398773,0.3137095304153228,2,1,0.7428619042002538,2,1,1,2,0.6092336288165825,1,1,0
53,1,0.714950064752875,0.3472225626069644,0.7308578366573728,0.294116179499738,1,2,0.6454466500617855,2,2,2,1,0.7418885411971132,2,0,0
54,0,0.6903687015806885,0.4123359755878448,0.7196460993453573,0.29735119998430104,2,1,0.7987073257172597,1,2,1,2,1.1036276003542298,1,1,0
55,0,0.6810724880990038,0.38008300877319945,0.7029247681724236,0.268079125792436,1,2,0.8622025366494199,1,2,2,1,0.6239311088029353,1,1,0
56,0,0.7165706544448318,0.3688398779166322,0.651674251249007,0.286350449297905,1,2,1.2549090041211457,2,1,2,1,0.969960450722283,2,0,0
57,1,0.7485107459389422,0.3754560933522002,0.6540837363616085,0.2879068190207312,2,1,0.8589434280220303,2,2,2,1,1.3638614726660307,2,0,0
58,1,0.7482167045263304,0.4267813882662496,0.671971121032412,0.2932236968572691,1,2,0.6641692723460437,2,2,2,1,0.5499359328241553,1,1,0
59,1,0.7429620852149015,0.40831100615536453,0.6669060247006331,0.3421070699525307,2,1,0.7841873413417488,2,2,2,1,0.4957081622633268,1,1,0
60,1,0.7401268978023906,0.35340296403823057,0.6437008305515948,0.3475275049245494,2,1,0.6865409511592588,2,2,2,1,0.8734516597178299,1,0,0
61,1,0.7275090452110904,0.37574827033070374,0.6335039123560586,0.3117429781169607,2,1,0.6519097201307886,1,1,1,2,1.3662502802581002,1,0,0
62,0,0.7319500062476342,0.33742190307604303,0.6195484706650247,0.26737398222543485,1,2,0.7725883500206692,1,2,2,1,0.8124199913690973,1,1,0
63,1,0.692427700858345,0.31011297463498955,0.6344012968726193,0.2610400801264128,1,2,1.0979507544616354,1,1,1,2,0.6559595731923764,2,0,0
64,1,0.7170786967828573,0.34015012631436664,0.6841228236161732,0.2734027201180782,2,1,0.8234973444959905,1,1,1,2,1.1179432689059468,1,1,0
65,1,0.7488612611206809,0.32843347881988705,0.7014486260489631,0.26029002089508113,2,1,0.8882051909495203,2,2,2,1,0.9017952068352315,2,1,0
66,1,0.7349781230328576,0.33213867628229327,0.7064491001954254,0.2503043110231604,1,2,0.8289454651530832,2,2,1,2,0.6901454077778908,2,0,0
67,1,0.729842458097504,0.3032243849239584,0.7269974892925021,0.31104402573047807,1,2,1.0589104602477164,2,2,2,1,0.9259065836704394,1,1,0
68,0,0.7378786573718764,0.2639267742848026,0.7166157033397274,0.34280075990042336,1,2,0.6975905800172768,2,1,2,1,0.9381501642965304,2,0,0
69,1,0.7084315535614805,0.2730878987830748,0.7412377606168482,0.37482320847404416,1,2,0.6627896885001974,2,2,2,1,1.5758141292499204,1,1,0
70,1,0.7482540382006799,0.26013476294585525,0.744604334596617,0.435815015999586,1,2,0.8992041928722756,2,2,1,2,0.6807303055211378,1,1,0
71,1,0.7160385686847788,0.2640753123695865,0.740144096737051,0.4316092215214382,1,2,0.7495642467802099,2,2,1,2,0.962253404661169,1,1,0
72,1,0.7131323179286533,0.25426267085800114,0.7327843527108033,0.4497410794642197,1,2,0.6543820018850965,2,2,2,1,0.8221346362952318,1,1,0
73,1,0.70749895597331,0.26146368454684565,0.7448753565073887,0.4523309293557447,1,2,0.6327555635361932,2,2,1,2,0.6507621763812494,1,1,0
74,1,0.6705488453890134,0.2686612173315601,0.717683256291032,0.44479535666756487,2,1,0.7776772605502629,2,2,1,2,0.748289533003117,1,0,0
75,1,0.6817971512552928,0.2986599911819598,0.7353593697750735,0.44377107509667457,1,2,0.722745534585556,2,2,2,1,0.9978998864535242,2,1,0
76,0,0.6934126871758824,0.32715660845369543,0.7202467825091574,0.4604008451312589,1,2,0.7432792750223598,2,1,2,1,1.3703917439524957,2,1,0
77,1,0.6687536324566643,0.3296946009361349,0.7097015609072801,0.46740183131778734,1,2,0.5815274385895464,2,2,2,1,0.9233050224356703,1,1,0
78,1,0.6415946226450959,0.39161295614967073,0.732193535031711,0.44838320678457033,2,1,0.9307501946714183,2,2,2,1,0.6388636423907883,1,1,0
79,1,0.597971995803753,0.400689762840252,0.6978307379851452,0.49384628408950887,1,2,0.6194726240901218,2,2,2,1,0.7461469289955858,1,1,0
80,0,0.6336097279896733,0.4034144807055416,0.6831920974955934,0.5313435546508677,1,2,0.688343932844873,2,1,1,2,1.2979349636807456,2,1,0
81,1,0.6312566581858212,0.4175673566067599,0.6573962431536924,0.5156842731761841,2,1,1.0893649695390195,2,2,1,2,0.6647894522393472,1,1,0
82,1,0.6042614404465749,0.4167364015738322,0.6732906430668373,0.5157133985984511,1,2,0.9122147112211678,2,2,2,1,0.8853646585448587,2,0,0
83,1,0.5878646230240321,0.4263000327929252,0.6829251006253266,0.48310387440596414,1,2,0.9906105125628528,1,1,2,1,1.0967568026935623,1,0,0
84,0,0.6043801989490815,0.4047498575754569,0.7055209371391995,0.5170712905858939,1,2,0.8786861226762994,1,2,1,2,0.6966069710870215,1,1,0
85,0,0.6093369752695231,0.4187066093337251,0.7135504303192755,0.48803178033977757,2,1,0.8594379446440144,1,2,1,2,0.502628381454997,1,1,0
86,1,0.6316294518485335,0.42549421006423227,0.7478790285371845,0.4681392043906256,1,2,0.7270554533643008,1,1,1,2,0.8870464972205809,2,0,0
87,1,0.6523081490550222,0.4260293853124785,0.7459827332992939,0.4560373109333504,1,2,0.6837019255108316,1,1,1,2,0.9779658340557944,1,1,0
88,1,0.6620645268024776,0.4214423864061885,0.7432986513664875,0.4470265124443036,1,2,0.7087360384175554,1,1,1,2,0.6290974664843816,1,0,0
89,0,0.6806919173558162,0.4309522004043289,0.7434430948414615,0.43667750458849275,1,2,0.8385434873271151,1,2,1,2,0.7501413335157849,1,1,0
90,1,0.6728891644912147,0.4146715149533786,0.7457856895926902,0.4280280063109898,2,1,1.069002094987809,1,1,2,1,0.9390867625043029,2,1,0
91,1,0.6740165411907181,0.4125222438360008,0.7374037576241608,0.41098206398752213,1,2,0.996097507468221,1,1,2,1,0.7687850018919562,2,0,0
92,1,0.6954863353363104,0.39811303274333576,0.735706228987262,0.4296823176423727,1,2,0.9318290304472612,1,1,2,1,0.6700754461817269,1,1,0
93,1,0.7159407230369922,0.37247336703958167,0.7495309996507395,0.4210310080072146,2,1,0.7943516016202921,1,1,1,2,0.6870068394564441,1,1,0
94,1,0.7280067301145343,0.3591224055951949,0.7387084120217948,0.4327689098450059,1,2,0.7729734763124725,1,1,2,1,0.8939670177605876,1,1,0
95,1,0.7400213358409186,0.3980092893086918,0.7480641134922514,0.5084776176956292,2,1,0.982185046250379,1,1,2,1,0.6117137456931232,1,0,0
96,1,0.74972432081697,0.3840863843177722,0.7478164006911954,0.5341819030317855,2,1,0.5832234407498618,1,1,2,1,0.8561321266424784,2,0,0
97,1,0.7482402399611475,0.4153760556672459,0.7331197580522126,0.5648519454774767,1,2,0.9202791593052098,1,1,2,1,0.633062639975833,1,1,0
98,0,0.7286301951009897,0.44895693186661445,0.7265297414843734,0.5890463339296779,1,2,0.8119670611558831,1,2,2,1,1.1218626370864513,2,1,0
99,1,0.7215161776285202,0.4393174672858926,0.7429299470223149,0.601912464091296,2,1,0.903847405610577,2,2,2,1,0.9900108245165029,1,1,0
100,1,0.7464442602581595,0.43782939448591596,0.7385874980381768,0.5904438425199225,2,1,0.7050698048915365,2,2,1,2,0.7671643374269479,2,0,0
101,1,0.7225722812611866,0.4424045626964657,0.697271813566605,0.6020197266716356,2,1,0.6177042977433302,2,2,2,1,0.6652698053731001,1,1,0
102,1,0.6973020057856227,0.45323863515503704,0.7005434543773734,0.5469135739254838,1,2,0.8646443819779961,2,2,2,1,0.562609541007987,1,1,0
103,1,0.6823519308210939,0.4534907948399916,0.7191121951485606,0.5120910511417085,1,2,0.6793911026761634,2,2,1,2,0.6602908878776361,1,1,0
104,1,0.7005852276089702,0.4994549478490999,0.7201660262557554,0.49408615442135084,2,1,0.6861314154593856,2,2,1,2,0.8339029867493082,1,1,0
105,0,0.672566172180546,0.541526489244157,0.7238212384614947,0.5041926027382861,2,1,0.8294680073995551,2,1,1,2,0.7893624381940754,2,1,0
106,0,0.6618776219909612,0.5556503233032385,0.7378744692658749,0.5187907246638294,1,2,0.8867996909357316,2,1,1,2,0.8069845274440013,2,1,0
107,1,0.6633191599778806,0.5721331998583066,0.7173938335611552,0.5449446635231812,1,2,0.6731058295699768,2,2,1,2,0.9520722687375383,1,1,0
108,0,0.6596233484026284,0.5743774757747456,0.7189588865175822,0.5704777624013483,1,2,0.5381552269900567,2,1,2,1,1.0121381078533886,2,0,0
109,0,0.648259052137409,0.6000839242477639,0.7354333101456091,0.5639719689309564,2,1,0.876690879194939,2,1,2,1,0.6849440934056474,1,1,0
110,0,0.6444944035119464,0.5979342800146807,0.7172551552737794,0.5796087029816057,2,1,0.8264572118059732,2,1,2,1,0.642261673725443,1,0,0
111,1,0.6106940177040219,0.6257579172908263,0.7050623798446085,0.5917590644586981,2,1,0.9461254125490086,2,2,2,1,0.8334949577983934,1,1,0
112,1,0.6017235871312177,0.6075868736163863,0.6721971083013227,0.58009493772437,1,2,0.7692942847024824,2,2,2,1,1.0968806578603107,1,1,0
113,1,0.544697763913853,0.6025727701358305,0.6499858402197689,0.5620596742604929,1,2,0.7331349038904591,2,2,2,1,0.6422155670588836,1,1,0
114,0,0.5061685818368655,0.5701259975629682,0.6807513668153992,0.5544680631922128,1,2,0.8343203575677762,2,1,2,1,0.81075713779137,2,1,0
115,0,0.5248973623850944,0.59524582034073,0.705798418609173,0.513554410701144,1,2,0.709787752621196,2,1,1,2,0.648094920670701,2,0,0
116,1,0.5557218985720833,0.5909280510177946,0.6997607256526273,0.50315614054583,2,1,0.7608977480667818,2,2,2,1,0.9091062779807544,2,0,0
117,1,0.5647320089546631,0.5721530226910967,0.6570131856294403,0.5243748032378744,1,2,1.0520333342174126,2,2,2,1,0.7128250670830312,2,1,0
118,1,0.6195351674501706,0.6107489272380852,0.6340534171765713,0.4756405864647375,2,1,0.8685426556003222,2,2,2,1,1.2886373882283806,2,1,0
119,1,0.6247753787322905,0.6110717844589181,0.6478886678250019,0.46391670529942464,1,2,0.6171398677433899,2,2,2,1,1.121035127856885,2,0,0
120,1,0.5780332177126435,0.5945393361015592,0.6813342681874984,0.44711034976005437,2,1,0.7857658166976762,2,2,2,1,0.878882302029524,1,1,0
121,0,0.5824185572949814,0.6058746460749949,0.6877955996429653,0.45656114577850543,2,1,0.7885584343275696,1,2,1,2,0.6564504736015806,2,1,0
122,1,0.6184639610035682,0.6073924233817699,0.6798132789800044,0.4045155006511396,2,1,0.7431295036876691,1,1,2,1,0.6019722805503989,1,1,0
123,1,0.5957807589755575,0.6014239947351023,0.6911086127575795,0.4245401109712237,1,2,0.7575180991261732,1,1,2,1,0.5369549468523473,1,0,0
124,1,0.585782171561386,0.5864468015212068,0.6746961971034167,0.42776016721972443,1,2,0.7797846065222984,1,1,2,1,1.1098857518918521,2,1,0
125,0,0.5954816533691568,0.5944562693416503,0.6724732100872406,0.40429994633256783,1,2,1.0856773401101236,1,2,2,1,0.8292284335293516,1,1,0
126,0,0.6162692973538874,0.5576744392071524,0.6617592369074305,0.4003030856606755,1,2,1.008382674499444,1,2,1,2,0.973104142005468,1,1,0
127,1,0.5998792630961134,0.5827442389956362,0.6672108498951593,0.42682894667404425,1,2,0.6769549830169126,1,1,2,1,0.8620458342484199,2,1,0
128,1,0.5992901616553934,0.636424717238871,0.6468595949151998,0.43496264538173907,1,2,0.7947159347058914,1,1,1,2,0.8226264407567214,2,0,0
129,1,0.6372937132661342,0.6458825128546113,0.65995275391746,0.42384243966285573,2,1,0.861122495472955,2,2,1,2,0.6211616951841279,2,1,0
130,0,0.644652425771735,0.6414305918412277,0.6490547214075,0.44881970864931736,1,2,1.1228206311971007,2,1,1,2,0.7589468031474098,1,1,0
131,1,0.6231478299818534,0.6210596446956536,0.6925977691977574,0.47928787237823256,1,2,0.8722851308702957,2,2,2,1,1.045531992604083,2,0,0
132,1,0.6302321216325454,0.6027351617185657,0.6932980907498169,0.48857357487295844,1,2,0.6907619714620523,2,2,2,1,0.7635535524423176,1,1,0
133,1,0.6009901062798557,0.5858729611613147,0.6461992264056662,0.4814770063975251,1,2,0.7086977668695909,2,2,2,1,0.626673702201515,1,1,0
134,1,0.5833479706882976,0.5762109396002737,0.6445032073659953,0.46331361694174533,1,2,0.7107966750154446,2,2,1,2,1.3889341584690555,2,1,0
135,1,0.5990716886832443,0.6266953668035562,0.6782077127870277,0.4443230379082923,1,2,0.8700970228928782,2,2,2,1,1.490885947168863,2,1,0
136,1,0.5815266650220989,0.6132272704310167,0.6357673448488379,0.39626131202781956,1,2,0.8069134086617851,2,2,2,1,0.7789992863981752,2,0,0
137,1,0.528138610431228,0.6313142543752236,0.6372953787432726,0.3936232780471931,2,1,0.7727631334710168,2,2,1,2,0.6779271406157932,1,0,0
138,0,0.5565680573610835,0.6210553166824133,0.6459155057325273,0.38908368095948953,1,2,0.8797429598453164,1,2,2,1,0.7895601243035344,1,1,0
139,0,0.5477225050739674,0.6293312225677783,0.6121682303656626,0.40211121052665827,1,2,0.698659772566316,1,2,1,2,0.7790119431338098,1,0,0
140,1,0.5637504744333712,0.6278079798449765,0.5921693938796471,0.38271340762278916,1,2,0.8237824223324424,2,2,1,2,1.193300851740787,2,1,0
141,1,0.558879552064623,0.639676124021416,0.6025442076205968,0.375521610142183,1,2,0.7466010646130599,2,2,1,2,0.7977707275094872,2,0,0
142,1,0.5693052453591616,0.6482766195708634,0.6338754388260708,0.40774136317931176,1,2,1.3269185798417311,2,2,2,1,0.770085330485017,1,0,0
143,1,0.553515551988975,0.614600945583536,0.6359176370749602,0.41993772898693743,1,2,0.8523947743378812,1,1,2,1,0.8380724760681915,1,0,0
144,0,0.5455258716386395,0.6418737256509679,0.654234503958885,0.44007682889388855,1,2,0.7374466307774128,1,2,2,1,0.7846140540386841,1,0,0
145,1,0.5084639077244146,0.6081007282092723,0.6049506166442429,0.4317924078055486,2,1,0.9361546194668335,2,2,2,1,0.8540030834228673,2,0,0
146,1,0.5085457934055344,0.592084199746882,0.5503953942657467,0.44362964273500055,2,1,0.7581241155348835,2,2,2,1,0.577022545861837,1,1,0
147,1,0.5003528332981362,0.5968656179789096,0.5328680005050086,0.4576063619239511,2,1,0.9666510165188811,2,2,2,1,1.5041480934123683,1,1,0
148,1,0.4933244429715895,0.578088630046923,0.5087247831465418,0.4592750525532653,1,2,0.9867185673065251,2,2,2,1,0.7664998589680181,1,1,0
149,1,0.4924491593679394,0.541485606087299,0.4983138234163227,0.4459139168436972,2,1,0.711954766044073,2,2,2,1,0.6185631474545517,1,1,0
