trial,common,reward.1.1,reward.1.2,reward.2.1,reward.2.2,isymbol_lft,isymbol_rgt,rt1,choice1,final_state,fsymbol_lft,fsymbol_rgt,rt2,choice2,reward,slow
0,1,0.3887931883458184,0.37208756274378935,0.4172105089831757,0.5846837413405546,2,1,1.298670322248654,2,2,2,1,1.3795539293350885,2,1,0
1,0,0.399634531715143,0.35926237645464676,0.39526806677291404,0.6316405217028143,2,1,0.8972079298546305,2,1,1,2,1.5103821181182866,1,0,0
2,0,0.3822040157228477,0.332944682163961,0.3763674947402671,0.5955599460703942,2,1,0.743541311196168,2,1,1,2,1.1662757149679237,2,0,0
3,1,0.38023678885314594,0.3538739341774169,0.3440501984933726,0.5769993720104085,1,2,1.1057917103389627,1,1,1,2,1.491023982052866,2,1,0
4,1,0.3638719832604811,0.32845506114711065,0.3202690304625917,0.6219805909943679,1,2,0.8973962737436523,1,1,2,1,0.7770843039324973,2,1,0
5,1,0.3479845564079804,0.3638132865279605,0.33885914412891893,0.6621802837113988,2,1,1.1957911618810613,2,2,2,1,1.5760984667940647,2,0,0
6,1,0.3613465155482494,0.38219851714141156,0.32849018219797177,0.6316198075615067,1,2,1.068273606717412,1,1,2,1,0.9193864027183736,2,1,0
7,0,0.42860174298063985,0.3787092571209245,0.3511986329544486,0.6449030279985962,1,2,1.0933393161394633,1,2,1,2,1.610364398722595,1,0,0
8,1,0.43914387234164015,0.3615181878421889,0.3771115213878439,0.619577883362119,1,2,0.8674996187910438,1,1,2,1,0.7984545554791111,2,1,0
9,1,0.45361900851957687,0.3785990463755341,0.3989106114493774,0.6025427768400484,2,1,1.2232848501007538,1,1,1,2,0.9003030980602489,2,0,0
10,1,0.4834441393285041,0.3313160305585092,0.4259338184274808,0.6146165098055527,2,1,0.927311311061203,1,1,2,1,1.0293572380396654,1,0,0
11,1,0.4605036149690984,0.35802226452501246,0.45636458631130017,0.6151005779221321,2,1,0.9372908252698835,2,2,2,1,1.1485105162209948,2,0,0
12,0,0.4402070494721313,0.34982629310668933,0.4292047177876579,0.5810470874117355,1,2,1.4987792302199523,2,1,1,2,1.5949506358228973,2,0,0
13,1,0.4712240455494978,0.3571046751157211,0.4424967703344139,0.5897912360534907,1,2,1.4163527099517523,2,2,1,2,1.648393893679895,2,0,0
14,1,0.4467454540250768,0.2889625300712195,0.3979810756252302,0.560070857781316,2,1,1.0600807980226818,2,2,1,2,0.855209953719168,1,0,0
15,0,0.4938329368680779,0.31002910054406635,0.4296975523254611,0.5598169952511762,1,2,1.508704200037755,1,2,2,1,1.4012384891757392,1,0,0
16,1,0.5314971514681603,0.2796446659269214,0.4287726097569251,0.5622442593680929,2,1,1.1247921436806791,1,1,2,1,1.8023868746240623,2,0,0
17,1,0.5472825675958194,0.2738385931939529,0.4305183421104063,0.5842438625651407,1,2,1.76616065944836,1,1,2,1,0.7311904720263556,1,1,0
18,0,0.5311358495111191,0.25341432363736427,0.46233499330650585,0.5931592940455096,1,2,0.7345294325787108,1,2,1,2,1.2851282456176705,2,0,0
19,0,0.5460439499932602,0.27791432304623315,0.4506463684290978,0.6310823878763009,2,1,1.6468639385639108,1,2,1,2,0.8609377175380359,1,1,0
20,1,0.5426510233867112,0.2924758394250381,0.4595023218268234,0.6556762203165772,2,1,1.0911478972629993,1,1,1,2,0.9120084450405557,1,1,0
21,1,0.5679347455181208,0.3172614493499652,0.42568540411510924,0.6801923897305697,1,2,0.8403476617386332,1,1,2,1,0.7590457805199549,1,0,0
22,0,0.5752531018155018,0.26792564025611987,0.45324919366428784,0.6669275889863422,2,1,1.1792901273438474,2,1,2,1,1.4022968311837758,2,1,0
23,1,0.5926287134428477,0.2905857049243635,0.4313631381985301,0.6511640108624115,2,1,0.8021888875227887,1,1,1,2,1.0753381601607543,2,1,0
24,0,0.5902268484628608,0.2965629237650852,0.4318012740496135,0.6419877553424995,2,1,0.8021509173995582,1,2,2,1,0.9696112401215942,1,0,0
25,0,0.6015573952645337,0.31499133235165055,0.42053673120371937,0.6946931962487125,1,2,0.6100350229244214,1,2,2,1,0.9527696798249963,2,0,0
26,1,0.6228999985748874,0.29368713338719976,0.4025910359618068,0.7199359179764014,2,1,1.3303666407664423,1,1,1,2,1.3276532833042438,2,1,0
27,1,0.6117958166145208,0.27959982153430074,0.3995568187119507,0.6563761344094368,2,1,0.8781797722840565,1,1,1,2,0.8257029446176603,2,0,0
28,0,0.6008433884789692,0.2619874753274436,0.3608889123323642,0.6803370374268171,2,1,0.8247958804204245,1,2,2,1,1.0798894526815275,2,1,0
29,1,0.6054212900904081,0.2701119495536331,0.37880019116369035,0.6569799521311968,2,1,0.905162671864673,1,1,1,2,1.1611401043555816,2,1,0
30,1,0.5731132286813505,0.2746558276937742,0.3934599151636903,0.6431263758581016,2,1,1.166841349346214,1,1,2,1,0.6641620444570435,2,0,0
31,0,0.6187270392727863,0.27529404937130897,0.43285262679582026,0.6595578413648485,2,1,0.8322772012252244,1,2,2,1,1.353177346420125,2,0,0
32,1,0.6321787916244822,0.2809929661425238,0.4104537154126837,0.661767964765415,1,2,1.2721502966160187,2,2,1,2,1.4290226790180895,2,0,0
33,1,0.6296508931962261,0.28201784140784103,0.42898162522689154,0.6768247179084328,1,2,1.0700925567143713,1,1,1,2,1.2202369938750053,1,1,0
34,1,0.6250185897167571,0.29946493009776376,0.4012897548127281,0.6674507123041593,1,2,0.9281776929710759,1,1,1,2,0.6908903030926012,1,1,0
35,1,0.6693211925475553,0.27910723969423534,0.42051380980072056,0.6229002078309529,2,1,0.8719644237935427,1,1,2,1,0.5791170920419972,1,1,0
36,0,0.6511125921286451,0.2853385442036901,0.4549952677385057,0.6435791798199159,2,1,0.7143739238090347,1,2,2,1,1.5910032491592574,1,0,0
37,1,0.6894182256733431,0.3078588464553246,0.48600013359564864,0.6614151021353295,1,2,0.7318597708945163,1,1,1,2,0.9480755472977762,1,0,0
38,1,0.7237914785586549,0.32450441944845054,0.5012228884965384,0.6598698735472772,2,1,0.6571658975226455,1,1,1,2,0.7435175045247888,2,0,0
39,1,0.7304329885735753,0.3185194736106416,0.5274174562288354,0.6582737788274984,2,1,0.8584018553519854,2,2,2,1,1.225290938578837,2,1,0
40,1,0.6977144536411348,0.34897557145919283,0.5377151405450075,0.6488198934862508,2,1,0.8870102380751632,2,2,2,1,0.8407276643774821,2,1,0
41,0,0.6854542276777527,0.3164411887697123,0.5531005049299296,0.6555111984951435,1,2,0.8810290387118584,2,1,1,2,1.6778659461560892,1,1,0
42,0,0.67481024100544,0.3332687308447652,0.5378028056008146,0.7197702277889578,1,2,1.1699148203479126,1,2,1,2,1.6811500609619543,2,1,0
43,1,0.671872672824696,0.33925705563768543,0.555496032057094,0.7295661415117087,2,1,0.7728524426493095,1,1,2,1,0.7782782535432489,1,1,0
44,0,0.68971133838813,0.3600971394679243,0.5873258829433201,0.738910696532481,1,2,0.923608319440973,1,2,2,1,0.9633178419244359,2,1,0
45,0,0.6309535659375523,0.34772541222402076,0.5744097866957945,0.7286949566476845,1,2,0.6334095548518235,1,2,2,1,0.9730809866669006,2,0,0
46,1,0.6590423345465238,0.3306913975922974,0.5050219703534853,0.7136083130848863,1,2,0.9797501686043688,1,1,2,1,0.5824792565545067,1,0,0
47,1,0.6191369543417158,0.3147664772593326,0.5253905771632515,0.6630210646397441,2,1,1.2072032950818539,1,1,1,2,0.8008611384138931,2,1,0
48,0,0.6115273791908638,0.3068127120524109,0.5241194155405873,0.6736388248407467,1,2,0.7491795739988447,1,2,1,2,1.8073247994980193,1,0,0
49,0,0.60515727636384,0.27949048408403154,0.5096655123290963,0.6957279148329775,2,1,0.8325285273167538,1,2,2,1,1.524543770814489,2,1,0
50,1,0.6298785900656877,0.2817297387633279,0.5148292185568049,0.7272612790725622,1,2,1.012577454544953,1,1,1,2,0.9520123867041548,2,1,0
51,1,0.6185187135235899,0.275513196086828,0.5327557993836559,0.7008222983354968,2,1,0.8286796821848839,1,1,2,1,0.9591209372665617,2,0,0
52,1,0.6604180407337483,0.2949724385084092,0.5196671211418731,0.7209794642337056,1,2,0.7822144902456785,1,1,1,2,0.7498217513348209,1,1,0
53,1,0.657887202177357,0.3142090850228273,0.47883087535990865,0.6813561632322915,1,2,0.8784916697768494,1,1,1,2,0.5466466047801077,1,0,0
54,1,0.6094044132867329,0.3142254893124993,0.4988412874495353,0.7006198760310962,2,1,0.6702577569012647,1,1,1,2,0.6434836930347956,2,1,0
55,1,0.6293275050011715,0.30481461471075333,0.47519478546913674,0.699891708973287,2,1,0.6225883694496588,1,1,2,1,0.9317535148002207,2,0,0
56,1,0.6688930584605729,0.2586247309799985,0.48300019980199804,0.7185960836132128,1,2,1.25742300953425,2,2,1,2,0.8621916358388262,1,1,0
57,1,0.6718907122103619,0.31830866928442,0.51293915706625,0.7421052741678509,2,1,0.8192121620086255,2,2,1,2,1.7932032263779547,1,1,0
58,1,0.6414807064383337,0.3463453296570057,0.5084815166621406,0.7279372391693211,2,1,0.942023530631559,2,2,1,2,0.5983965756968246,1,0,0
59,1,0.6556125655795993,0.35579428471920965,0.49240853699972,0.7494789126526359,1,2,0.6778321949313977,2,2,1,2,0.9973134626998217,2,0,0
60,1,0.6352152469055743,0.33786380099029234,0.4915473043577301,0.6869213251085445,1,2,1.2619318116776412,1,1,1,2,0.9881581413646927,1,0,0
61,0,0.5941583493228009,0.35874406475202514,0.4960918422122798,0.6785853788790437,1,2,0.9511291291782982,1,2,1,2,1.0430249777200515,2,0,0
62,1,0.595148457630104,0.3735309629026673,0.4460964435524444,0.6650416298214952,1,2,1.3916594694164814,2,2,2,1,0.6442180835438194,2,1,0
63,1,0.5824384097957993,0.4466286378237742,0.43189756187535533,0.614296403997435,1,2,0.4403365720427246,2,2,2,1,0.6239507738428074,2,1,0
64,0,0.5889142556441518,0.43898760212997323,0.44635983727435385,0.6234420071224127,2,1,1.007402969742543,2,1,2,1,1.2767718037430313,1,0,0
65,0,0.5380172128234966,0.396401212551416,0.4475669812355843,0.6473592693914202,1,2,0.8515545754271443,2,1,2,1,1.0782871735063964,2,0,0
66,1,0.5444297731891272,0.42891470940494486,0.41994457130690854,0.6166902907548533,1,2,1.3392787724660593,1,1,1,2,1.0710770679070265,2,1,0
67,0,0.5207777017380653,0.38814770405649934,0.4101815166037972,0.6579026749201876,2,1,1.0759914874652168,1,2,1,2,1.1371203815797344,1,1,0
68,0,0.5243584654802885,0.43278248797175606,0.39201750239281674,0.6946460506962532,2,1,1.0076910605639569,1,2,1,2,1.2510479454213055,1,1,0
69,1,0.4962051252795874,0.4149979826322936,0.35519444155802393,0.67905847995012,2,1,1.5213443354296032,2,2,1,2,0.6441204460716108,1,1,0
70,1,0.49077601619413613,0.42599834641293083,0.35543360382157746,0.6745257689874085,1,2,0.7472253177547827,2,2,2,1,0.6723268275818555,1,1,0
71,1,0.5233763164490939,0.41494268557322456,0.3435107526725756,0.7031852471188638,1,2,1.1078921214357251,2,2,1,2,0.6350392568929237,1,0,0
72,1,0.5278343011811454,0.43694832847978304,0.36293821105947965,0.7085881587795596,1,2,0.9927082284921198,1,1,2,1,0.8719538765362813,2,0,0
73,1,0.5002984223929205,0.44655458349810595,0.4026458336739144,0.7267709507454629,1,2,0.7616633086217917,1,1,2,1,0.7733333976211725,1,1,0
74,1,0.510035406849319,0.43332027083683755,0.4230050369481262,0.7164206248394707,2,1,0.9594295199058251,1,1,1,2,0.8651469775504665,1,0,0
75,1,0.4795938860583653,0.43366478278213827,0.39673121780243337,0.7160015130452824,1,2,1.0823716745217098,2,2,2,1,0.9990869088069303,2,1,0
76,0,0.4656523257946539,0.4571871739531837,0.3781706027499179,0.7164039459681985,2,1,1.4435031602624804,2,1,1,2,1.5531907263648463,2,0,0
77,1,0.4832358814632477,0.49782305958679296,0.3592076360565364,0.7009483244130199,1,2,1.0038973625269136,2,2,1,2,1.3380845215069712,2,1,0
78,1,0.4855673005944849,0.41262339990289254,0.3820777502191085,0.7378660728592339,2,1,0.8232011350046378,2,2,2,1,0.7552327960656839,2,1,0
79,1,0.448600458517431,0.41768753435236483,0.38523228570373663,0.7190110413759252,2,1,0.7528479103493737,2,2,2,1,0.6387313999148319,2,0,0
80,1,0.47905303064304866,0.36661918757374723,0.4254239088816511,0.726809417998498,1,2,1.030174801213434,1,1,1,2,0.7533734651442501,1,0,0
81,1,0.44964474803721477,0.3509215471457634,0.34581849780781737,0.7166971183452737,2,1,0.8047669387451606,1,1,1,2,0.6823280390090076,2,1,0
82,0,0.43762148616059204,0.323645025191065,0.3704413668117535,0.6902125800121035,2,1,0.4913714388749213,1,2,1,2,,,0,1
83,1,0.41447712824958405,0.2803525369030344,0.4125545715004628,0.7267584579040978,2,1,0.7168721172056394,1,1,2,1,0.5690321052461513,2,0,0
84,0,0.4180516699386017,0.25501804904446335,0.3987728337906611,0.7032356980942591,2,1,0.879076289216755,1,2,1,2,1.5034158048583777,2,1,0
85,1,0.41854888133716867,0.2708938900828446,0.41558208094827037,0.6922966815020095,2,1,0.6922713911917526,2,2,2,1,1.2014212882277207,2,1,0
86,1,0.4034565578793634,0.25297805303514664,0.4684375975222524,0.7037480974723462,2,1,0.729308841189777,2,2,1,2,0.7491542605785071,2,1,0
87,1,0.4265695406141659,0.25620456803232283,0.4364698472778834,0.7088461380508897,2,1,0.9217779181417427,2,2,2,1,0.7253277033087215,2,1,0
88,0,0.4390714933995881,0.27861851382783004,0.47551405280191955,0.6643449714121565,2,1,0.6614092101081042,2,1,1,2,0.9271473765329574,2,0,0
89,1,0.41193163289067836,0.25232793818763577,0.49452523800043313,0.6782124431085281,2,1,0.7603653931801091,2,2,1,2,0.647259912766458,2,0,0
90,1,0.3789225804899501,0.31382677235294,0.4924716162635048,0.6738730627470195,1,2,0.8813795090318308,1,1,1,2,0.6062973760199384,1,1,0
91,1,0.3488708518737198,0.28946163238829214,0.5055724566109022,0.6690349067090882,1,2,0.9813931300595868,1,1,1,2,0.5228296907152981,1,1,0
92,0,0.3217703826641687,0.30512589325557643,0.4736697309751796,0.6338432394947362,2,1,0.9120681123895338,1,2,2,1,0.9750048065398005,1,0,0
93,1,0.3156976375952256,0.3632834423726423,0.43281734016074913,0.6155021760912449,1,2,0.7219366091740085,1,1,2,1,0.5751006961800158,1,1,0
94,0,0.3054899369769519,0.3620328716583532,0.42140332459361374,0.5596273371008382,1,2,0.982001857526484,1,2,2,1,1.1693467751611024,1,1,0
95,1,0.2799569251032168,0.34868973813083337,0.4046958863942334,0.5612852373703731,1,2,1.0236168175106286,1,1,1,2,0.6054168306509382,1,0,0
96,1,0.2832263271225165,0.3079301017587659,0.39467661659340414,0.5319902534480092,2,1,1.0363356053130701,2,2,2,1,0.830661361294915,1,1,0
97,1,0.2762996989145581,0.32032421353611457,0.3853974217588667,0.5137355308484337,2,1,0.8645078137051314,2,2,2,1,0.6245857187750516,1,1,0
98,1,0.263703642363319,0.2870035921978644,0.40120903834155347,0.5305138616993885,1,2,0.8483174712673645,2,2,2,1,0.6782194299739785,1,0,0
99,1,0.2551890739425984,0.2862618870401181,0.42118043579240805,0.5290227958436269,1,2,0.8803067022090545,2,2,1,2,0.6368470569213969,1,1,0
100,1,0.25850320018563144,0.25596283496241057,0.45752691658616906,0.5473537233698678,2,1,0.9574641137078288,1,1,2,1,0.6449820063789957,2,0,0
101,1,0.268789403840315,0.29778516044220993,0.4287136425595195,0.5561999514035371,1,2,0.9165386430468061,1,1,2,1,0.673458699042385,1,0,0
102,1,0.2778807206917502,0.285198289924101,0.4547952039943407,0.5820883848211728,1,2,0.7551818678839481,2,2,1,2,0.765890649643552,1,0,0
103,1,0.2760027737631767,0.27693037911833107,0.44254605037893624,0.5598500239800424,2,1,0.9426614890617202,2,2,1,2,0.6010596076812362,2,1,0
104,1,0.2752121045401852,0.2563447494275868,0.4170349088574816,0.5742452993564333,1,2,0.7589921401813626,2,2,1,2,0.7786254090096918,2,1,0
105,1,0.2701514178058666,0.2853414714391316,0.43909323563199726,0.5706881730281141,2,1,0.7754181385098491,2,2,1,2,1.356513594815624,2,0,0
106,0,0.2625771392501379,0.2890894576368487,0.4628942074497216,0.6076849515349249,1,2,0.765717975962616,1,2,2,1,1.2107559129435685,1,1,0
107,1,0.2685817531227059,0.32732881607279773,0.4639159526065045,0.6144396434546026,1,2,0.9959998770500533,2,2,2,1,0.9502585283626104,1,0,0
108,1,0.27424141313485917,0.2911133215637596,0.4221519097065696,0.5961389715238088,2,1,0.8483066226472147,1,1,1,2,0.527020267007174,1,0,0
109,1,0.25732200444402054,0.31159832429838674,0.4332813823025056,0.5691856918792717,1,2,0.9040100072379573,1,1,1,2,0.6570010589421145,2,1,0
110,0,0.2598606241231886,0.30022238197945983,0.42549925679211986,0.5608922533776788,2,1,0.8657677590163075,2,1,1,2,0.8899881810502848,2,1,0
111,1,0.27404232996687417,0.3101708384192992,0.41362044685307797,0.5725486576906209,1,2,0.7386642590790871,1,1,1,2,0.46211665990995243,2,1,0
112,1,0.2843707618092333,0.32236306563551553,0.42492105733163427,0.566328729901717,1,2,0.8893761387298582,1,1,2,1,0.773882156390755,2,0,0
113,0,0.3213757813906414,0.29381226308974817,0.40686372995050424,0.5206142547899617,2,1,1.197140909556765,2,1,1,2,1.016697514889529,1,0,0
114,0,0.3252139636886971,0.3042825308890582,0.3941594339003729,0.5260229640993022,2,1,1.2243859838417848,2,1,1,2,1.0732380504050525,2,0,0
115,1,0.327166999745569,0.30489867426936507,0.3284247753678584,0.5379463420771224,2,1,0.9712677623392665,2,2,2,1,0.8193257710518083,2,0,0
116,1,0.2937896916767051,0.27909644746021933,0.31218691746905947,0.5029675916384455,1,2,0.7568426089928835,2,2,2,1,0.5982814599119592,1,1,0
117,1,0.30577267581002665,0.27827378162843086,0.27202850629543907,0.5299172253147753,1,2,0.9224550521030324,2,2,1,2,0.5653080191113986,1,0,0
118,1,0.30894172032511724,0.25886482840751235,0.26074743671956235,0.5642636080472372,2,1,0.8442989659451996,2,2,2,1,0.8134018282289617,2,0,0
119,1,0.3375426431042105,0.2957592353249035,0.30326413993277657,0.5628187495898642,2,1,1.024577823394793,1,1,2,1,0.5242641178047052,2,0,0
120,1,0.34872898083297765,0.29896332157857575,0.2804352781805681,0.5641068035087691,2,1,0.8629447100684047,1,1,2,1,0.6263691094354726,1,0,0
121,0,0.33557158510768126,0.27724699734996205,0.28028181739493974,0.5707063907028427,1,2,0.9458440488451743,2,1,1,2,0.7571219606543309,2,1,0
122,0,0.36961119247907526,0.33708072799733046,0.30341128520315874,0.5586144308068528,2,1,0.9054616112989606,1,2,1,2,0.7781137163183303,1,0,0
123,1,0.3653287677471271,0.3176193588678071,0.32980513723012406,0.5393351830497626,1,2,0.8463394083519233,1,1,1,2,0.6296670863521285,2,1,0
124,1,0.37038630946983536,0.40666133860475995,0.33918367887795586,0.5569490079379041,2,1,1.1409083539692801,1,1,1,2,0.5898978965124115,2,1,0
125,1,0.35671272064822523,0.4267528453807711,0.35867124768038233,0.5723709182727,1,2,1.0947408960637404,1,1,2,1,0.5293301165147568,2,0,0
126,1,0.37308761139771335,0.4262430899098517,0.4021814513933295,0.5496774989906443,1,2,0.9503299483694718,2,2,1,2,0.7940720190890715,2,0,0
127,1,0.39798216735971115,0.4522121939914584,0.3989552989321252,0.5211240389813616,2,1,0.8947175715511548,2,2,1,2,0.6654777395597193,1,0,0
128,1,0.37201534237813294,0.4677481000844087,0.40738042653901657,0.5049362225204386,2,1,0.822533644248324,1,1,2,1,0.8258979182137409,1,0,0
129,1,0.391476057377239,0.5157727470082576,0.4087126063704063,0.5163625450070357,2,1,0.9828061612861347,1,1,1,2,1.21905781042733,2,0,0
130,1,0.36656088088764527,0.4999060149410386,0.38004290271847574,0.5157872274878903,2,1,0.8511073716872488,1,1,1,2,0.67780929231958,1,0,0
131,1,0.3992022335099762,0.5130320098630056,0.36196165556080917,0.519116801651332,2,1,0.9609896100446349,2,2,2,1,0.805868373834528,2,1,0
132,0,0.4094795916185045,0.5397216337752145,0.36289998305569277,0.5336112648345955,2,1,0.5741634969672305,2,1,2,1,1.2901155919244047,1,1,0
133,0,0.4428171705217739,0.5550035171167205,0.38288721574390305,0.5006330078654284,2,1,0.7387293507272261,1,2,2,1,0.929886951475055,2,0,0
134,1,0.4795202903381275,0.5514253686603965,0.38553388730889415,0.5345835137380205,2,1,1.0966324714536313,1,1,2,1,0.558838029675826,1,1,0
135,1,0.4940800648408927,0.5808965477567979,0.41038366173014024,0.5291096136248812,2,1,0.8097021514549851,1,1,2,1,0.6493220523843775,1,0,0
136,1,0.5154285444211862,0.559811687872374,0.44145571884124335,0.5363831670022579,1,2,0.9822757848814945,2,2,2,1,0.8641088260119432,1,0,0
137,1,0.5015765441217819,0.5356352736405168,0.43477607848129285,0.5295075067233785,2,1,0.9965715384314535,2,2,2,1,0.8371090508153429,2,0,0
138,1,0.47451293380399395,0.49249369068909554,0.441734926309706,0.5387554625521361,1,2,1.370227441075258,1,1,2,1,0.9027319809101755,2,0,0
139,1,0.45316742529062237,0.4916105333048071,0.4630983918178852,0.5272413595088792,1,2,0.6986922605428845,1,1,2,1,0.7262878051406005,1,0,0
140,1,0.47588938832793637,0.4884727756891123,0.45427685727367795,0.573003100302113,1,2,0.6571454057047958,2,2,2,1,0.5455409507776494,2,0,0
141,0,0.45943064964977154,0.5133575805791147,0.46327772720469224,0.5549175372541042,1,2,1.6307724389916984,2,1,1,2,0.9479709787701722,2,0,0
142,0,0.5114281794246567,0.48167909236484596,0.449896221552035,0.5308982739324901,1,2,1.0420672866894165,2,1,1,2,0.7407932984569925,1,1,0
143,1,0.4905861754950456,0.44567567743133507,0.4465083668875254,0.5420318245961867,2,1,0.8297597214041161,1,1,2,1,0.6883577557600802,1,0,0
144,1,0.4303937525036112,0.44221649816575415,0.45533514735794695,0.5494401547789948,1,2,0.9954550358379493,1,1,2,1,0.8950282636360498,2,0,0
145,0,0.43146944548136246,0.44219367053839465,0.4533936075290719,0.5461508061665867,2,1,0.7888610709123896,2,1,1,2,0.881986428394157,2,0,0
146,1,0.4089654176275588,0.47340286585638924,0.42448515283492716,0.5426313050002061,1,2,1.1611678285698872,2,2,2,1,0.8727753572675283,1,0,0
147,0,0.4031698439921376,0.4883078635500832,0.4191745986686761,0.539421662030807,2,1,0.9028287143373745,2,1,1,2,1.009088421582419,1,0,0
148,1,0.40939386494215624,0.47057656839259887,0.42055014785066686,0.5449857644362102,1,2,1.0780569419366657,2,2,1,2,0.7461513055459363,2,1,0
149,1,0.4241195974256465,0.4854459377153116,0.41483494583322256,0.5112046121406988,2,1,0.87512950526434,2,2,1,2,0.7840747252193978,2,1,0
