trial,common,reward.1.1,reward.1.2,reward.2.1,reward.2.2,isymbol_lft,isymbol_rgt,rt1,choice1,final_state,fsymbol_lft,fsymbol_rgt,rt2,choice2,reward,slow
0,0,0.475110358381181,0.41844064330184,0.2835341165065115,0.47067353539253654,2,1,,,,,,,,0,1
1,0,0.41611540739305375,0.4162527922611776,0.2928689460189303,0.5232024500700156,1,2,0.5334031262773351,2,1,2,1,0.9373659552056779,1,1,0
2,1,0.44902049457996995,0.45162486139456526,0.3135858128094447,0.4913085906089829,1,2,0.7073762041618465,2,2,2,1,1.9263645258961333,1,0,0
3,0,0.4636104981397715,0.4428929471070957,0.30232110912698484,0.47481494535910085,2,1,0.9936020120621833,2,1,1,2,1.096507128311714,1,0,0
4,0,0.46426103977029065,0.42159022155689163,0.3329062805159923,0.48353961453257815,1,2,0.8177928011409676,2,1,1,2,1.032115904503371,1,0,0
5,0,0.4840904934876309,0.4261476951160217,0.29092855170498,0.4492195443002407,2,1,0.9120660127955489,1,2,1,2,1.7910617417437606,2,0,0
6,0,0.4988605978088536,0.4243297429937103,0.2855288991356324,0.3738272707265591,1,2,0.5730121290853276,2,1,1,2,1.5622671496730618,2,1,0
7,1,0.4608967939811053,0.42936834862670936,0.29650845701283424,0.3538374866850993,2,1,0.7273548865759949,2,2,1,2,,,0,1
8,1,0.47028417850012966,0.43076568091278583,0.32095819674559917,0.3656315936182399,2,1,0.7362679518701043,2,2,2,1,1.6086872929536185,2,1,0
9,1,0.502215567516075,0.43082329661264457,0.3007471211433175,0.3738498092980599,1,2,0.787866213315283,1,1,1,2,1.4443460030415736,2,1,0
10,1,0.48513642630085374,0.4867601579009001,0.3240356166175574,0.38884234266812745,2,1,0.8090421641609282,2,2,1,2,1.3118301150534535,2,1,0
11,1,0.45372587048374013,0.43695390716332194,0.34214699581257396,0.39259544102024996,1,2,1.1040514563246688,2,2,2,1,0.9520167478967778,2,1,0
12,1,0.4797758016668224,0.3947214371878607,0.3341286652506634,0.3964940635753608,1,2,1.2016835287740832,1,1,1,2,1.2363054700981593,2,0,0
13,1,0.5191574582117698,0.37526655630454275,0.361063802635744,0.4120981652674892,2,1,1.1895722228910017,1,1,1,2,1.159350913561866,1,1,0
14,1,0.5213964118231849,0.377449851926458,0.31920544059073475,0.37514325266715476,1,2,0.7636327529016853,1,1,1,2,1.3162072416507726,1,0,0
15,1,0.521492097504041,0.34042234705531427,0.29257833026039837,0.35826927297929534,2,1,0.9805194511664013,2,2,2,1,1.3238009912638518,2,0,0
16,0,0.526289993806083,0.3714727585154879,0.26143514579628535,0.37193732256567896,1,2,1.123900859061905,2,1,1,2,1.9701785837514763,2,1,0
17,1,0.5129676113839376,0.37735171692806285,0.26144114433403254,0.33302512226781955,2,1,0.798809481835633,1,1,2,1,0.7851591752259992,2,0,0
18,1,0.5206168311570175,0.3889042208095609,0.2845234818258772,0.3276557018915698,1,2,0.779457308626661,2,2,2,1,1.6261475831470307,2,1,0
19,1,0.5522450663769063,0.3671061730508969,0.2625272971586263,0.31432609777399967,1,2,0.7457469547716755,2,2,1,2,0.9201205284371099,2,0,0
20,0,0.5351566263662224,0.3715434757770653,0.2656786841635124,0.3202106381994518,2,1,0.8146084227064421,2,1,2,1,1.8527218193648878,1,1,0
21,0,0.5254138385224403,0.3292823301721399,0.25873015217162165,0.3354520313991042,2,1,1.39825945557277,1,2,2,1,,,0,1
22,0,0.5157556625583539,0.2746039462743308,0.2641030247943489,0.3224080754934122,1,2,1.260376502197687,1,2,1,2,1.6226274994460255,1,0,0
23,1,0.551698711348999,0.27006771020310594,0.27005625915908027,0.30409256665253137,1,2,0.850709395861486,1,1,1,2,0.9727135502871533,1,0,0
24,0,0.577021495552788,0.2798441417709952,0.2562273513274185,0.32517833798112217,2,1,1.0202068052931281,1,2,2,1,1.6901325855014875,1,1,0
25,0,0.5665047497672666,0.2667087734185829,0.3036816332581352,0.3189928963687716,2,1,1.4007064275501762,1,2,2,1,0.93754013621583,1,0,0
26,1,0.5645573995790498,0.27052902057074174,0.30703635873757634,0.3117748133102043,2,1,0.7498836030881648,1,1,1,2,0.8170222460485093,1,1,0
27,1,0.592202592649005,0.2557449903754694,0.31299603772260143,0.34580626544468784,2,1,1.1531488039217948,2,2,1,2,1.2748118287581747,2,0,0
28,1,0.6021896803407347,0.2922379064670775,0.3047061737455594,0.34292994969703816,1,2,1.265200231317067,2,2,1,2,1.5472101355280756,2,1,0
29,1,0.511167573325177,0.3233718647804703,0.31753005614487495,0.3295397198584884,1,2,0.7377674755844055,1,1,1,2,1.007153174117775,1,1,0
30,0,0.5319006470099001,0.3033517743707592,0.318248821670691,0.2794599649893006,2,1,1.0851262978067098,1,2,1,2,0.9361617556951387,2,0,0
31,1,0.5402837680936663,0.2544344031047481,0.36639051505776027,0.2532644383181464,1,2,1.0147433075162553,2,2,1,2,1.473942611275561,1,0,0
32,1,0.4869204386944781,0.3247158535433208,0.33225088038566586,0.2851933086225743,1,2,0.7105277353130077,2,2,2,1,1.0641510468776687,1,0,0
33,1,0.5443339500634664,0.3260674487223656,0.33412902406393585,0.27211647010761286,2,1,0.8334266015390313,1,1,1,2,1.29110076672805,1,0,0
34,1,0.5424469476215652,0.3778305479460875,0.337177081501859,0.2643803266157865,1,2,1.0615515911795228,2,2,1,2,,,0,1
35,1,0.5461415532284424,0.3783321813803205,0.34460906054743695,0.2749398305940058,2,1,0.6159501589172578,2,2,2,1,1.2713688909716439,1,0,0
36,0,0.5646653433655908,0.40132248029569434,0.38432632383470755,0.2733622721725282,2,1,0.7194492384405748,1,2,1,2,1.1978756546486693,2,1,0
37,1,0.5576435918468006,0.40587861568190803,0.3692789475705842,0.2627195537243816,1,2,0.9578795360503136,2,2,1,2,1.39517934466312,2,0,0
38,1,0.5762739878365628,0.4159792493597131,0.3117157118473348,0.25430435553130937,2,1,0.8387566007222631,1,1,2,1,0.9981180615759513,1,1,0
39,0,0.5555513933117169,0.41707819104707566,0.3061331276519965,0.25378605781179564,2,1,1.0110442211844202,1,2,2,1,1.3950657352506823,1,0,0
40,1,0.5937265623274789,0.38775114232650987,0.3205733337050719,0.2530461458856088,1,2,1.36641115096063,2,2,2,1,1.3368907845888316,1,1,0
41,1,0.5719936996049637,0.38959969941355416,0.3207446793003478,0.29418722000988484,2,1,1.0505914469886193,2,2,2,1,1.776816567808055,1,0,0
42,1,0.5934682811085596,0.3955338829503425,0.3225483304173992,0.26323031474277814,1,2,1.1260067014500237,2,2,1,2,1.175875206839919,2,1,0
43,1,0.5875986165302183,0.3890690740064593,0.35044491789740906,0.2708048937493329,1,2,1.232951430920366,2,2,2,1,1.1201303524885589,2,1,0
44,1,0.5661642373035245,0.37766423843269314,0.3460956631560146,0.26258251204786753,2,1,1.2129953498497343,2,2,2,1,0.9076249997378909,2,0,0
45,0,0.5812918931431063,0.36239739906126234,0.35425044160396285,0.2608997804622497,2,1,0.6134248356192984,1,2,1,2,1.166109016217888,2,0,0
46,1,0.5566642168464537,0.35420200081391506,0.3989648249508365,0.268916984526101,2,1,1.2048510315398744,2,2,2,1,0.8553143439858104,1,1,0
47,1,0.5877167261083679,0.35970009454263574,0.4028497079579316,0.2544162182977008,2,1,0.8067558123875642,2,2,1,2,1.7749825442297151,2,0,0
48,0,0.5867440777249464,0.35287100228141766,0.36408765576112234,0.2674857153012519,2,1,0.7920920615943032,1,2,2,1,1.8559574275095656,1,1,0
49,0,0.5484682718259124,0.33339792844668725,0.33901068440947135,0.3060645479678499,1,2,1.183090459309824,2,1,2,1,1.4657021619241277,1,1,0
50,1,0.6020824878982234,0.3206196032429385,0.31404853859769366,0.2823289519399228,1,2,0.8337198162844288,2,2,1,2,0.9606239416916651,2,0,0
51,0,0.6389583519188069,0.31750636158748335,0.3254086297097513,0.25354383025684557,2,1,0.6827937790258147,2,1,1,2,1.1337743307212804,1,1,0
52,0,0.6511496593663403,0.31393544496636805,0.3368127823461094,0.26151763645795123,2,1,0.7969109690948244,1,2,2,1,1.3661218537799868,1,0,0
53,1,0.6557641066110795,0.2833189691078213,0.3269985059191325,0.27181088060335723,1,2,1.2538218116205826,2,2,2,1,1.4569801533089048,2,1,0
54,1,0.6427431515498787,0.25265114529352406,0.27338261751164916,0.28444586280267964,2,1,0.7988501642521442,1,1,2,1,0.790004300282817,1,0,0
55,0,0.6612332203066865,0.25444378659423156,0.2595328112204136,0.31078597927004703,2,1,1.3012695625930064,2,1,2,1,1.2008897696377971,2,0,0
56,1,0.6787846205937949,0.26032296957189316,0.29314752480292094,0.314912795986254,1,2,0.8111657862700667,2,2,2,1,1.2935034400761651,2,0,0
57,0,0.7018812638069609,0.28557567184959254,0.2638683118851457,0.2836880434682518,1,2,1.3759573551851645,2,1,1,2,1.1390419502022269,2,0,0
58,0,0.6862488714805022,0.262822383322018,0.2950572529305528,0.2707778780540737,2,1,1.0478889291680389,2,1,1,2,1.0636119295322715,2,1,0
59,1,0.6581397760352969,0.31839412293578917,0.3091060196777784,0.29214487973101855,1,2,0.8878180875217367,2,2,1,2,1.481756045934162,1,0,0
60,1,0.646265255871465,0.3420134907838064,0.30575700281976737,0.3103911251617175,1,2,0.5927521413250361,1,1,2,1,1.1970900319938664,2,1,0
61,1,0.6552752828551048,0.36466218407895545,0.31098846126133395,0.28878343668619433,2,1,0.7242554891872715,1,1,1,2,0.7150513186079479,2,1,0
62,1,0.6550575247829657,0.36181965707956154,0.30210423421221977,0.27005035745515915,1,2,0.8582371495540428,1,1,1,2,0.9298198190863332,2,0,0
63,1,0.7154366024841444,0.34869156735637397,0.3090594276868073,0.260417942702694,1,2,0.6766166815395991,1,1,1,2,0.825864795155212,1,1,0
64,1,0.7215667783252753,0.32551629045144503,0.29189876615414656,0.2845512140748514,1,2,0.701402217402574,1,1,2,1,0.6282419741892227,1,1,0
65,1,0.7302984772453647,0.31539715297966797,0.2845692917182965,0.31956248003491,1,2,0.6641187420282222,1,1,2,1,0.8461589923063002,1,1,0
66,1,0.7339762574749488,0.3046080499462045,0.2845372369963419,0.3293488420946142,1,2,0.6593947601650143,1,1,1,2,0.5378088812431088,1,1,0
67,1,0.732667592421594,0.31579445767298797,0.27956448588695126,0.33236125465773286,1,2,0.6387051902038365,1,1,1,2,0.4870676626924251,1,1,0
68,1,0.7322055895751989,0.30815855590903585,0.27036092027894076,0.3355074129932257,1,2,0.6799881990864378,1,1,1,2,0.6910025864981435,1,0,0
69,1,0.7428125854161868,0.32188118496827045,0.2689556559752364,0.3445093238214929,2,1,0.8678556780741928,1,1,1,2,0.7512017133631161,2,0,0
70,1,0.7331730896567406,0.31961982288724666,0.2552430669246559,0.3540121465073678,1,2,1.3453617676314025,2,2,1,2,0.6920142225717427,1,1,0
71,1,0.7249241790628789,0.28953675183457417,0.27570832117568783,0.2985592795047165,2,1,0.79684979479498,1,1,1,2,1.3013340517536562,2,0,0
72,1,0.7446860419497628,0.29658976373329204,0.2747216760868527,0.3070880584590808,1,2,0.9276600348293869,2,2,1,2,0.9528062881145161,1,1,0
73,0,0.7279330420426664,0.2598416660432892,0.3219385085161921,0.33386494903012315,1,2,0.8695474638734595,2,1,2,1,1.6400908031519066,1,1,0
74,1,0.702841337939037,0.25195146308489,0.30205192620277943,0.30471606139547314,1,2,1.3167695630436356,1,1,2,1,1.1172057388121175,1,1,0
75,1,0.6934494939628069,0.2678008572893922,0.32507084745991344,0.2966125371885364,1,2,0.6128682398993988,1,1,1,2,0.9659430922311003,1,1,0
76,1,0.6993989450921657,0.25436371094781096,0.30796433671428725,0.2913285343218506,2,1,0.6823544089347706,1,1,1,2,1.0813509696126857,1,0,0
77,1,0.6686694507638378,0.2802939780360991,0.31035560001862444,0.26814668470603253,1,2,0.9108377051852585,1,1,2,1,0.987754894171303,2,0,0
78,1,0.6941708150531765,0.2755914571857334,0.2885245824191347,0.25339751786369513,1,2,1.1695733499436756,2,2,1,2,1.136766748424634,2,1,0
79,1,0.7206958470943398,0.2632929312517649,0.26428215189798765,0.26626202519818354,2,1,0.9056270410910656,2,2,2,1,0.9978833089680847,2,0,0
80,0,0.7362134832037341,0.25397276219328124,0.2578094772877031,0.28770526741367786,2,1,0.7106347149983776,2,1,2,1,1.4069959290463885,2,0,0
81,0,0.735895772621797,0.2661220710944219,0.2584276916170268,0.26763973693126974,1,2,1.3403195588689414,1,2,1,2,0.9309082997260703,2,0,0
82,1,0.7421147357951661,0.27311562222094876,0.312593194318379,0.29173334526155087,1,2,1.166625833575381,2,2,1,2,1.4690281754355965,1,0,0
83,1,0.6988469849764138,0.25928819646987655,0.3173913805888224,0.28740539759728034,1,2,1.0213673088765063,1,1,2,1,1.4864188534975256,1,0,0
84,1,0.7269564965005287,0.25479045951712065,0.33796121118127026,0.3096626161266642,1,2,0.7546940727515903,1,1,2,1,1.1300152754938608,1,1,0
85,1,0.7245278286315338,0.2500949470033216,0.33817837671588213,0.26851851838371266,2,1,1.034295276591365,1,1,2,1,0.6719333820929023,1,1,0
86,1,0.7117154198316742,0.2743895883502729,0.35605362184734557,0.2544362539521503,1,2,1.038089589912488,1,1,1,2,1.008159687220541,1,1,0
87,1,0.7006026359834339,0.29916690268744456,0.4387254617091211,0.25856898374328896,2,1,0.8220942885818658,1,1,2,1,1.559396477867267,1,0,0
88,1,0.7111797863967613,0.3404579143186646,0.37909789636156344,0.26010733329628444,1,2,0.998127102113358,1,1,2,1,0.9742766591116379,2,0,0
89,0,0.7388499796418616,0.37126064315413415,0.38351780702893895,0.2588106727388766,2,1,1.0360202110241516,2,1,1,2,1.3900666197150713,1,1,0
90,1,0.7143863253256368,0.3341057273720358,0.39366029279007725,0.28975558142601776,2,1,1.3427891321898642,1,1,1,2,0.9849484101760027,1,1,0
91,0,0.708216475709103,0.3114904770830902,0.38152772943727675,0.2648619633588427,1,2,1.0620572585430637,1,2,1,2,0.98079247538044,2,0,0
92,1,0.7286004912744718,0.34102469680488073,0.3846509713883685,0.2631301294546877,1,2,1.0055683680038783,2,2,2,1,0.9388534248719225,1,1,0
93,1,0.709077591953617,0.3939883826831928,0.3804044330566201,0.25943938100261876,2,1,0.7732657462802308,2,2,1,2,1.1169941902480787,1,0,0
94,0,0.7479010928244999,0.3793284215128676,0.34691431571239795,0.2686744246262538,1,2,0.7760089465155033,2,1,1,2,1.3889645782728621,1,1,0
95,0,0.7039429794175727,0.3526576764560012,0.3543955740823095,0.27100916538332065,1,2,1.0916951518920541,2,1,2,1,1.3050976272497792,1,0,0
96,1,0.7203397902052773,0.34493814526475286,0.3774977722862143,0.276655194010256,1,2,0.8200610718376993,2,2,1,2,0.879445043632586,1,0,0
97,0,0.7253411350129606,0.3552803961442019,0.4041008614287914,0.3101902250259881,1,2,1.3063648091665527,2,1,2,1,1.3010357140374254,2,1,0
98,0,0.7342847304634942,0.32866858957273326,0.35771007801690136,0.3267301596776459,2,1,1.0940339387780114,2,1,1,2,1.4600150615333405,2,0,0
99,1,0.6980940803909363,0.36493031422189254,0.3818870570156771,0.29199376558773893,1,2,1.154394288550975,2,2,1,2,1.544013401689881,2,0,0
100,1,0.671410206922554,0.3520662802782446,0.31413989271487,0.2853183725866457,2,1,0.721185021520796,2,2,1,2,0.9301856594793207,2,1,0
101,0,0.6373303254480589,0.37119535372604534,0.3319040859277111,0.28997893844307343,1,2,0.980040001362795,2,1,2,1,1.142030450337188,1,0,0
102,1,0.6177570747673133,0.4081608782515007,0.3589031476263995,0.2970503463856432,1,2,0.788470422525279,2,2,2,1,0.7339119879652571,2,0,0
103,1,0.632942081825963,0.4508082706239762,0.3479452265767158,0.25077018604462764,1,2,0.6354957996154553,2,2,2,1,0.8321422426015488,1,1,0
104,1,0.6280765899360334,0.45793142178378804,0.3046735101933924,0.25873277651988064,2,1,0.6987352590294904,2,2,1,2,1.0218597167840926,1,0,0
105,1,0.6363772696443585,0.4027021945184943,0.3398511038191177,0.2701290781547123,1,2,1.0389550706422597,1,1,2,1,1.0208673671877477,2,0,0
106,0,0.6266439293476957,0.42854054931129487,0.31616248586495344,0.2906018240593202,2,1,0.9791703017144755,1,2,2,1,1.2705917061502987,1,0,0
107,0,0.6236110000706612,0.4405909802662117,0.2584850129635792,0.2689903559522646,2,1,1.337571537016629,1,2,2,1,1.59014213833143,2,0,0
108,1,0.6041908473942406,0.47846827122335467,0.2574307597213028,0.2797236056627903,2,1,0.6058136076353549,1,1,2,1,0.5583296945187612,1,0,0
109,1,0.6294462770401392,0.4487246745958968,0.27545748863301844,0.26678203021719415,2,1,1.077449073902244,2,2,2,1,1.226960568492359,2,0,0
110,1,0.6625319602222878,0.42392330111544796,0.28705139456818707,0.33857033731889913,1,2,1.2521827622877026,2,2,1,2,0.9809759982817923,1,0,0
111,1,0.6728287274106548,0.41676279978728337,0.30016199059415744,0.3275171075183103,2,1,1.0878791412797,1,1,1,2,1.2360116526506317,1,1,0
112,0,0.6879726874077863,0.41093497335804163,0.2873046857397974,0.34517636159871534,1,2,1.3872803262565867,1,2,1,2,1.638750995589362,1,0,0
113,0,0.6834811251562734,0.41226985075691275,0.2853199578148642,0.32661942870972194,1,2,0.8372130797288264,1,2,1,2,1.4081217772363743,2,0,0
114,0,0.6921736528516087,0.43168664754270153,0.2668005851215245,0.30704778180887926,2,1,0.7623712966560561,1,2,2,1,1.3949557420492056,1,0,0
115,0,0.6460090879435993,0.4588886536242625,0.265364152753814,0.29030517416253954,2,1,0.6804314867440553,2,1,1,2,1.0479781291360268,1,0,0
116,1,0.6296471361633647,0.4415553098233511,0.259297027438111,0.32843029018448844,1,2,0.9650254777407099,2,2,1,2,1.9178118766722037,2,0,0
117,1,0.6463332183218538,0.4494527291657659,0.25260188377613435,0.3456509510222746,2,1,0.9482628156401915,1,1,1,2,1.2199131686575129,2,1,0
118,1,0.6254302023156142,0.47370785503532326,0.2698654830745131,0.3568261226636702,1,2,1.3790576566279924,2,2,1,2,1.753198767954018,1,0,0
119,1,0.6008859937557793,0.4957672931583296,0.28662151330054125,0.351552070585639,2,1,1.0606216212872823,1,1,2,1,1.6952766509748471,1,1,0
120,1,0.6078904545877789,0.47916240482300765,0.2768268710481221,0.35305628738065187,1,2,1.4370635492487054,2,2,1,2,1.313750626432011,2,0,0
121,1,0.6173704689640044,0.47973301910393884,0.2674657620129839,0.3190898307950838,2,1,0.919540427323227,1,1,1,2,1.152282720489893,2,0,0
122,1,0.6505249015381146,0.4863302993751065,0.2868048238746179,0.2808468631905232,1,2,0.9575607064507494,1,1,2,1,1.3422738215886056,1,1,0
123,1,0.6333811783009231,0.5072274601875373,0.3201574753180877,0.27950648067525075,1,2,0.7954702088718477,2,2,1,2,1.6100292099763465,1,0,0
124,1,0.6363910806730052,0.5196952448316738,0.37579839096624795,0.32635059271274325,2,1,1.0907907968539803,1,1,1,2,0.6854975022470171,1,1,0
125,0,0.6310476148300528,0.5346527492320058,0.38023290325065207,0.34961257882133684,2,1,0.8797777353865968,1,2,1,2,1.9790313787998457,2,0,0
126,1,0.5994918636943312,0.5173549144816509,0.41346237774407785,0.36226086773193167,1,2,1.5966865829686867,1,1,1,2,0.5691460941707192,1,0,0
127,1,0.5815485910145042,0.5395708915881616,0.44720071108255194,0.31808398349153144,1,2,0.6520315442394349,1,1,2,1,,,0,1
128,1,0.5885055750698407,0.5459526229454985,0.43742617063797384,0.3111016067045236,1,2,0.9250129656356876,1,1,2,1,1.1818356327930815,2,1,0
129,1,0.5684063469702132,0.5525834253483494,0.3825875392747293,0.3377463774468924,2,1,0.9075213349133264,1,1,2,1,0.6811532229367003,2,0,0
130,1,0.5563020890593702,0.5974133997006217,0.37183983648613017,0.301068015252806,2,1,0.6716401673438668,1,1,2,1,1.083998641508515,1,0,0
131,1,0.5549789298392049,0.6008308594823321,0.3636564566934486,0.3054325343012473,2,1,0.7620850129897008,2,2,1,2,1.1288234313833527,2,0,0
132,1,0.49698032653847934,0.5914629455695275,0.3795499130276426,0.2605611003289421,1,2,1.5247504284488969,2,2,1,2,0.8729265152032895,1,0,0
133,0,0.4537370916389243,0.5909317984469835,0.34689030113221797,0.28288616519416093,2,1,1.0691851191550086,1,2,1,2,0.7479995552057517,2,1,0
134,1,0.43989638228711603,0.5700961805015168,0.32062689940641564,0.2514975526288563,2,1,1.4316958811614313,2,2,1,2,0.7038763109922002,2,0,0
135,0,0.44003724892028273,0.5835682074213727,0.31724376806507104,0.26563824300364164,2,1,0.8870264378419961,1,2,1,2,0.9806574700269266,1,0,0
136,0,0.4658326292076527,0.610890212024389,0.26979423049048123,0.2542281588555786,1,2,0.9622581694056862,1,2,2,1,1.2037812346788996,2,0,0
137,1,0.45618593499594917,0.6304935888978623,0.28412731769483635,0.27887443730143285,2,1,1.4644066529908741,1,1,1,2,0.7293896100709389,2,1,0
138,1,0.4326664579837294,0.6800528205754014,0.2550676717941087,0.289202767194944,2,1,1.0175440658349544,1,1,2,1,0.8659933274830109,2,1,0
139,1,0.38005239442582184,0.688198528050924,0.288616822878889,0.30496398002553365,1,2,1.14079249948918,1,1,2,1,0.7206510271389561,2,0,0
140,1,0.3651973187033666,0.6720030892086015,0.2682012160804701,0.2882677069980306,1,2,0.6518540483702964,1,1,2,1,0.7649445347997244,1,1,0
141,1,0.37179811083050446,0.6823182396365892,0.2701523433084736,0.3142356548016164,1,2,1.2077916168309457,1,1,1,2,0.7448597767506726,1,0,0
142,1,0.3581132127746087,0.6989151425559185,0.25913137939880126,0.3542048389799108,1,2,0.613715639556176,2,2,1,2,1.013790736280498,2,0,0
143,1,0.4157845420880869,0.7182452529660687,0.2762628668332492,0.34953967320922996,1,2,1.00817565883699,1,1,2,1,1.1176315480988706,1,0,0
144,1,0.41265898342068663,0.7139056953756846,0.26029802175860395,0.36329316811270906,1,2,1.026183504214714,2,2,2,1,1.3220612906225142,1,1,0
145,0,0.3719005410186025,0.7183908491969065,0.27536894986863714,0.3825708679660491,2,1,1.1170192024001153,2,1,2,1,1.3300537279101263,1,0,0
146,1,0.37813037785105724,0.7018429494035565,0.2641884839637392,0.343995624653743,2,1,0.9180619981925702,1,1,2,1,1.0451749600033509,2,1,0
147,1,0.3851121217418225,0.685726396661023,0.27703170690800766,0.32205370064583283,1,2,1.10407556442442,2,2,2,1,1.0520388369404827,1,0,0
148,1,0.3740450067793719,0.7030656850466176,0.2769722874111118,0.3175773639053521,1,2,1.160588864408055,2,2,1,2,0.8063477828218311,2,0,0
149,1,0.4068022051159162,0.6968630181961932,0.25728083189062145,0.32660203090776485,1,2,0.988890084248851,1,1,2,1,0.931330191448069,2,1,0
