trial,common,reward.1.1,reward.1.2,reward.2.1,reward.2.2,isymbol_lft,isymbol_rgt,rt1,choice1,final_state,fsymbol_lft,fsymbol_rgt,rt2,choice2,reward,slow
0,0,0.6297281297701574,0.40526126108713095,0.7259761950402723,0.5134090006879546,2,1,1.1158898647299793,1,2,2,1,1.1723117702786112,2,0,0
1,0,0.6010145912798355,0.39125034130471015,0.7139850882964118,0.4749016061281748,1,2,1.054967888063402,1,2,1,2,0.8620262464501138,2,1,0
2,1,0.6073294156000808,0.41788749122661806,0.7070272719978679,0.49718312362463774,1,2,0.6291565312349121,1,1,2,1,1.0478186422842555,1,1,0
3,0,0.6136380393868544,0.41729850532761104,0.7468699574015555,0.5136044369177865,1,2,0.7745486368075944,1,2,2,1,0.9127354453630687,2,1,0
4,0,0.5818941038965595,0.4079448554450602,0.7284175062719488,0.4846366715396808,1,2,0.6523195571826363,1,2,2,1,0.7231580837942602,2,0,0
5,0,0.5683080965684466,0.400082303119746,0.7250123719831048,0.4938187777656531,2,1,0.955704750973382,1,2,2,1,0.8901938047092699,1,1,0
6,1,0.5609419842798586,0.3790072801148492,0.7466375194976854,0.49578651119073053,2,1,0.8814796443584783,1,1,2,1,0.8793605457103695,1,0,0
7,1,0.5959676726814817,0.4008783814406548,0.7450703717796854,0.5228364521056276,2,1,0.8965068020879698,1,1,1,2,1.2010383342312707,1,0,0
8,1,0.5471652094040516,0.40135466968664224,0.7291004744226501,0.5120169855110024,2,1,1.0536982972444093,2,2,1,2,1.1826833598934172,2,0,0
9,1,0.5769028806821337,0.4329089013909348,0.7022354096215215,0.5083917463147176,2,1,0.8511140335431264,1,1,2,1,1.1277326488270774,2,0,0
10,1,0.5867829608545049,0.41025709471549576,0.6913304658866346,0.5241461370864449,1,2,0.7813293305916886,1,1,2,1,0.8646847629825061,1,1,0
11,1,0.5613047422902018,0.37617057365047946,0.7293231028676725,0.5444474437277366,1,2,1.004993683687644,1,1,1,2,0.9252993618574692,1,0,0
12,1,0.5708988896898304,0.36375010595440793,0.7494175602246134,0.5466775294415565,1,2,0.7163605143687164,2,2,2,1,0.9200525435226155,1,1,0
13,0,0.5830696972076618,0.37357917532491947,0.7310286400784763,0.535693254413875,1,2,0.6232304682489485,2,1,1,2,1.243036386298627,2,1,0
14,1,0.5736801085830847,0.3701239854905749,0.736817457889251,0.5300821631119061,1,2,0.6449147659441223,2,2,2,1,0.9452511939525721,1,1,0
15,1,0.6099143617425347,0.37952974905804043,0.741829846593538,0.58150210539188,2,1,0.7173450273512572,1,1,1,2,0.8283897743240232,1,1,0
16,1,0.606491636439102,0.337394579273697,0.7120814357577209,0.6175911759697754,2,1,0.9159948553424329,1,1,2,1,0.963350622831058,2,0,0
17,1,0.5911393933237268,0.35004556971904033,0.7489220144839493,0.631225208897862,1,2,1.0973046584003896,1,1,2,1,0.7734248997694522,1,1,0
18,1,0.5428724533800453,0.37237923527816713,0.7479789268058865,0.6239389267470277,2,1,0.8618981723666366,1,1,1,2,1.193127575039398,1,1,0
19,0,0.5453397968844653,0.35281169681186664,0.7410678098958523,0.6418626763537648,2,1,0.9110798242036253,1,2,2,1,1.230904908163211,1,1,0
20,0,0.523597061954407,0.4053098300175854,0.7299326927174388,0.6290134513818328,2,1,0.7814691573512391,1,2,2,1,1.1931450533847965,1,1,0
21,1,0.5229176107713618,0.3933417235711163,0.6911614363595113,0.6031835443892202,1,2,0.8670835151497158,1,1,2,1,1.1599747709115036,1,0,0
22,0,0.5204424679393163,0.3797829198291178,0.7109215663411793,0.5838840885202377,2,1,1.023054539666191,1,2,2,1,1.4158905879739905,2,1,0
23,1,0.5426973830780512,0.42865206082304225,0.7266941468142425,0.5889203294718677,1,2,1.1122923391812947,1,1,1,2,0.8503814498108113,1,1,0
24,1,0.531678853293093,0.42757853119318145,0.7129282407263684,0.5698082583442183,1,2,1.1811193493740575,1,1,1,2,0.8502202271447459,1,1,0
25,0,0.5262931753765696,0.44845039903244693,0.7449891707030761,0.6238603407503596,2,1,0.9469453880083165,2,1,2,1,0.8180501278948213,1,1,0
26,0,0.509170133268771,0.43119799820916893,0.7458531347305437,0.6080167679499526,1,2,0.8674809968179034,2,1,2,1,0.8499924059615296,1,0,0
27,1,0.5063506661467758,0.4111089058739821,0.7470898626622511,0.6211137323873757,1,2,0.9073717029205,1,1,1,2,0.8272356008601491,1,0,0
28,0,0.5068410746485688,0.37338454472726834,0.7045891025682707,0.616382720034472,2,1,0.980987478273164,1,2,2,1,0.9560615502923611,1,0,0
29,1,0.506187151647747,0.382242162400538,0.7032686253430094,0.5965313569090174,2,1,1.0435726098694431,1,1,1,2,1.0328213182765467,1,1,0
30,1,0.48800355473520884,0.3482297608709979,0.720972759212525,0.5808651192792094,1,2,0.7318755590058572,1,1,2,1,0.7598324730752211,1,0,0
31,1,0.5094813924368791,0.3417143605731896,0.7384055880877052,0.5879529369935982,2,1,0.9542528429446975,2,2,1,2,0.8180281292843574,2,1,0
32,0,0.475445721184385,0.37281770459989416,0.7303122537625968,0.5815162931781555,1,2,0.8852808830270078,2,1,2,1,0.7970426640385995,2,1,0
33,1,0.49530195940678623,0.3556606071591877,0.7018245822872888,0.5788059834611277,1,2,0.7518659639972611,2,2,2,1,1.2395283619298425,1,0,0
34,1,0.5396411335042168,0.35776849007579,0.6441366620630242,0.6003285506239769,1,2,1.1006496520021756,1,1,1,2,0.9614017873718694,2,1,0
35,1,0.5477223975129628,0.3760625173697193,0.618137857494254,0.5459470178171766,2,1,0.950789418489876,2,2,2,1,1.3490883536360343,1,1,0
36,1,0.5295612806994516,0.3895006866432135,0.6267725198667761,0.5434187313740342,2,1,0.9176775980631646,2,2,2,1,0.9851283392672485,1,1,0
37,1,0.5299588070288296,0.37683880890905863,0.6213989506579469,0.5715320313318972,1,2,0.6625028025591746,2,2,2,1,0.7466785117612744,1,1,0
38,1,0.504541688945237,0.37399960578681046,0.6510820077188169,0.5673288734722082,2,1,0.7241519386479922,1,1,1,2,0.8785728147850023,1,0,0
39,1,0.4996409498970773,0.3655028481895304,0.645430146424943,0.5422995853310986,2,1,0.6674744876436307,2,2,2,1,0.9202547498935019,1,0,0
40,1,0.5027351840445017,0.3335274662206009,0.670815375811333,0.5468090559781138,2,1,0.7070041755141574,2,2,1,2,0.9874749577502371,1,0,0
41,1,0.5515279804736852,0.3663182982406588,0.5945574821719743,0.5512402850280207,1,2,1.0929700288579625,2,2,2,1,0.8070435921981698,1,1,0
42,0,0.5411692880264067,0.3546883843066053,0.5956831138248416,0.5985158548974217,1,2,1.0547991316307161,2,1,1,2,1.243386555899633,2,1,0
43,1,0.48352763020999445,0.31198786393412314,0.5492264941236189,0.6261285245889457,1,2,0.6728231625456829,2,2,1,2,0.74162094170606,2,1,0
44,1,0.4546945928757169,0.30587254862300917,0.5355740676418179,0.6378081870544743,2,1,0.5951192625798285,1,1,2,1,0.7889830375679594,1,0,0
45,0,0.43734866442872145,0.28386120520845126,0.5116011823931705,0.6404322488713134,2,1,0.7425488007465901,1,2,2,1,0.7648104865256755,2,1,0
46,1,0.3950942207605703,0.2854198392397066,0.49584450210175124,0.6553606662655445,2,1,0.8055883693086798,1,1,1,2,0.9221264395491744,2,0,0
47,1,0.4263473776084545,0.28236387494945836,0.4555049917022207,0.658554989326974,1,2,0.7723096005538537,1,1,1,2,1.0850017116717936,1,1,0
48,1,0.44548681626962516,0.3060894349333975,0.4558677242282025,0.6899783722720236,2,1,0.8672733661333041,2,2,1,2,0.9718544403440319,2,1,0
49,1,0.46133998433616213,0.2908088999382936,0.49295489653638286,0.6852353737061736,2,1,0.7745182003782247,2,2,2,1,1.1274201480737247,2,0,0
50,0,0.4519931298769271,0.2924339905081505,0.4995968127485707,0.7056361953770767,2,1,1.063780288768612,2,1,2,1,0.9599890549397969,1,0,0
51,0,0.4191175920111194,0.25324012292660325,0.4715197064284786,0.7021762768983828,1,2,0.8635387259855634,1,2,1,2,1.2231906296801753,1,0,0
52,0,0.44901642697822997,0.27548809297733595,0.4704648920135426,0.6758861171284805,2,1,0.8622950513381511,1,2,2,1,0.8012058249878464,1,0,0
53,1,0.4624739460036982,0.2719582930105078,0.47870046599459876,0.7010861138855826,2,1,0.7289822902166634,1,1,2,1,1.3811798003371223,2,0,0
54,0,0.472594488236307,0.27158003080576587,0.5006635212215155,0.7060617565082342,2,1,0.7161203378018399,1,2,1,2,0.9902537132438738,2,1,0
55,1,0.5125788945489228,0.2867205148270059,0.4858162858277495,0.7241582932564085,1,2,0.705846084489167,1,1,1,2,1.0874507894186536,2,0,0
56,0,0.5315289915588105,0.2713518047214247,0.4613870163496241,0.7279830717941317,2,1,0.8361170108873921,2,1,1,2,0.9850765069313638,2,0,0
57,0,0.546939718129087,0.27070950899511725,0.5042882347747976,0.7230566346596354,2,1,0.9081283947198244,1,2,1,2,0.8251168035603769,2,0,0
58,0,0.5268841761084058,0.28091799955825436,0.508692605883267,0.7030511535558914,1,2,0.8731810467215837,1,2,2,1,0.7330378689439385,2,1,0
59,0,0.5417456108764264,0.29525922951875655,0.48791653545822955,0.7066822386169446,1,2,0.748867222435365,1,2,1,2,0.7721233657721314,2,1,0
60,1,0.525780981032665,0.3067092728889756,0.4913887898079336,0.6829368290610418,1,2,0.8770971000412828,1,1,2,1,1.2459700360886927,2,1,0
61,0,0.5196071365243098,0.2748542952934465,0.4515703673597531,0.6738902998293423,1,2,0.7115850086447608,1,2,2,1,0.9291021072858712,1,1,0
62,0,0.5496575308844385,0.25755660216172105,0.4649115062751667,0.6874519937949242,2,1,0.7728071306810307,2,1,2,1,0.9342910662744544,1,1,0
63,1,0.5793706578687066,0.28523592055549774,0.41807260297566917,0.6856042344514932,1,2,0.6074291403783718,1,1,2,1,0.8371063454833347,1,0,0
64,1,0.5961125893926288,0.3201126572486707,0.3971722446973103,0.6748879822613436,2,1,1.0360695782765106,1,1,1,2,1.0008510145889886,2,0,0
65,0,0.6227652445690692,0.32688221343117996,0.4169665427816766,0.67011371778817,1,2,0.7125267298142717,2,1,1,2,1.0767974368318391,2,1,0
66,1,0.6236204395720674,0.37224813723088457,0.45170449364688525,0.6796862429663365,2,1,0.8712581274303375,1,1,1,2,0.9753576430994144,2,1,0
67,1,0.6742849391623698,0.3561659030360116,0.4579743703051556,0.7067158020618434,1,2,0.7392688989129965,1,1,1,2,0.891025532848289,2,1,0
68,1,0.6840821727689115,0.36200026369671817,0.43650596178210743,0.730456899310174,2,1,0.8047831600342761,1,1,2,1,0.8282996704401739,2,0,0
69,1,0.6996501251276578,0.34416878339822077,0.45350672599010167,0.7135574298480005,1,2,0.811674449552811,1,1,1,2,0.8212664447128191,1,1,0
70,0,0.7081123112188186,0.3026066903126736,0.4545983698024987,0.6940902811226257,1,2,0.640685910526372,2,1,1,2,0.523352575586614,2,0,0
71,1,0.6997024254681747,0.3011156401192556,0.4557934892354108,0.6944252464423527,2,1,0.7345235282627982,2,2,1,2,1.0315387693808589,2,0,0
72,1,0.6836212443090117,0.3239860041657361,0.41867576332028245,0.6821637090880817,2,1,0.8591263479429472,2,2,2,1,1.105049976013106,1,1,0
73,0,0.727587820385021,0.30965576542667783,0.43997781628093585,0.6515277310130352,1,2,0.7574731978638738,2,1,1,2,1.1910594046785263,1,0,0
74,0,0.6923407648198987,0.3243433765645749,0.42536105402725344,0.6238796616882842,2,1,1.0199563523528923,1,2,1,2,0.876931959817739,2,1,0
75,1,0.6592495010523423,0.3404698846364257,0.42370515578112844,0.5963704526154241,1,2,0.8833395813380776,2,2,1,2,0.8160696506020031,1,0,0
76,1,0.6691291575337672,0.3388635945882168,0.40537674439717275,0.6160871464763858,2,1,0.8006362720261677,1,1,1,2,1.0284604712178407,2,0,0
77,0,0.6538215753529784,0.27165012857541804,0.4062986043818973,0.5980673550948561,1,2,0.8061989059751795,1,2,2,1,1.1162111046542122,2,1,0
78,0,0.6475293791887458,0.279231832989038,0.3905794803006408,0.579446687869897,2,1,0.8204675638080516,1,2,2,1,0.8048717571655288,2,1,0
79,1,0.6263208048566686,0.27030113308207504,0.4023869593987771,0.5978369603192137,2,1,0.763379371695919,2,2,2,1,0.8279934980564576,2,1,0
80,0,0.6433283188035033,0.26683385374817825,0.41240685285949114,0.5955273724201451,1,2,0.6708194812417787,1,2,1,2,0.7790975267562317,2,1,0
81,0,0.6675534312769386,0.2732691114978742,0.41050272924882614,0.5914474113872652,2,1,0.6973380480667402,1,2,2,1,1.1150307136704214,2,1,0
82,1,0.637739827300017,0.28078771119219575,0.41834499214857057,0.5846308507960774,2,1,0.7002991207773448,1,1,1,2,1.2924142174888402,1,0,0
83,1,0.6552457415872953,0.25767183602779054,0.4226534672142674,0.5692467238455232,2,1,0.6906085839182197,1,1,2,1,0.9921844676573528,1,0,0
84,0,0.6690779413082478,0.2534087396209983,0.4475482019484555,0.5702402450336412,2,1,0.8711071506913868,2,1,2,1,1.2330056244099978,2,0,0
85,1,0.6965203691574612,0.2640259320296203,0.43846339395354383,0.5118972600607705,2,1,0.8911891663192364,1,1,2,1,1.9291033126864932,2,1,0
86,0,0.7303386875935752,0.300712074311941,0.41951160483541927,0.5360204185037518,2,1,0.6065534150293388,2,1,2,1,1.6824148563500785,2,0,0
87,1,0.7451267290909194,0.29850653554683615,0.4530922963939878,0.5682196431757751,2,1,0.8220749688407523,1,1,2,1,1.616841229126294,1,1,0
88,1,0.7387099106246073,0.2913063148944919,0.4466864975981457,0.5651886815844276,2,1,0.8350939250085503,1,1,2,1,1.631089696453273,1,0,0
89,0,0.7166371058242329,0.26934099379702525,0.4391658601356112,0.5937419386247591,1,2,0.7610255207946466,1,2,2,1,0.9091644386789994,2,1,0
90,1,0.7466234122211705,0.2686070175357962,0.4509124548129574,0.6071429887616318,1,2,0.8216057656827616,1,1,2,1,1.1601655259546533,1,1,0
91,1,0.7327188631464654,0.2517418999684926,0.43786078463948863,0.638181077035774,1,2,0.6171892892707547,1,1,1,2,0.9049319670484692,1,0,0
92,1,0.7292294357185407,0.2703101054811386,0.46778233467000174,0.5983474733862266,2,1,0.6261695423563651,1,1,2,1,1.3090123168112768,2,1,0
93,1,0.7363131789807764,0.2855634010703456,0.4949422913305627,0.6147470126640513,2,1,1.356289130395453,2,2,2,1,0.9557089698864729,2,1,0
94,1,0.7370263935493782,0.26668090849422477,0.47229515896879604,0.6136024796365682,2,1,0.9449037365084223,1,1,1,2,1.1370582499002921,2,0,0
95,1,0.7450966489474008,0.2722543942335416,0.479180115213408,0.6172432295582929,2,1,0.8704176601204381,2,2,1,2,1.1523349260714895,2,0,0
96,1,0.7312221268764493,0.2602458603958695,0.4719179259229598,0.6494616602738241,1,2,1.2576455705057015,1,1,2,1,1.0859292693567113,1,1,0
97,1,0.7363330033097369,0.26293038485890774,0.4732773517406489,0.6630288165162946,2,1,0.9993008662022476,2,2,2,1,1.2104706134778098,2,1,0
98,1,0.723664911500626,0.26968743433947917,0.449811105809403,0.642869375801483,2,1,1.0106783647024713,1,1,1,2,1.1274228602269432,1,1,0
99,1,0.7337553299786601,0.26671544670172675,0.47343717299033233,0.6901939106541998,2,1,0.8028273935087782,2,2,1,2,1.123124995479884,2,0,0
100,1,0.7471296609205013,0.2785983878628498,0.5050375359865747,0.7266511342707332,2,1,1.528789847612643,2,2,2,1,1.052994944540842,1,0,0
101,1,0.7247707431199624,0.2637019186021812,0.5939055572330758,0.6871575374592194,1,2,1.1808903227829433,1,1,1,2,1.3163788364981883,1,1,0
102,1,0.6968044345700988,0.27705938277715997,0.5623960889839195,0.7104112383635691,2,1,1.1082328428929031,1,1,1,2,0.6358645994805556,1,1,0
103,1,0.6756746121125004,0.29212446037025214,0.5759044338022135,0.72084375617702,1,2,0.7524584196180513,1,1,1,2,0.7446236008290725,1,0,0
104,0,0.6636572435887249,0.27967894267526017,0.5603843407529727,0.72952887344033,2,1,0.9504865609596891,2,1,1,2,1.052375065995875,2,0,0
105,0,0.6748312915626244,0.30383134916937454,0.5539790634166066,0.7433060856485747,1,2,0.9544586655210878,1,2,2,1,0.8477916412521154,2,1,0
106,0,0.691799046907722,0.33732652158726895,0.5431681339531247,0.7380484909999148,2,1,0.6731196917062334,2,1,2,1,0.8902950585725193,1,1,0
107,1,0.7145499530789874,0.3566724775658339,0.6047820552811599,0.6969658559221579,1,2,0.7532603140316496,1,1,2,1,0.7692816279704857,1,1,0
108,0,0.7071252574168154,0.39538125652071676,0.5790195585772069,0.6870619553709201,1,2,0.4564337185001932,2,1,1,2,0.8790836043481249,1,1,0
109,0,0.6768565086350247,0.41314707542094714,0.5595261831724758,0.6744084887158184,1,2,0.7722300439490937,2,1,1,2,0.7943859556071402,1,0,0
110,1,0.679413875872548,0.3941023893049751,0.5850689766643644,0.6562707564911694,1,2,0.8609510268834129,1,1,1,2,0.7532777923770482,2,1,0
111,1,0.6565991106378428,0.4386991244629555,0.5958808567963605,0.6469346889145755,1,2,0.9261096940936113,2,2,1,2,0.9434265150084684,2,1,0
112,0,0.635369619001898,0.4351195441435083,0.6250538218045814,0.674378001746861,2,1,0.8251770737151674,2,1,1,2,0.6146305198417394,1,1,0
113,0,0.6577055784751584,0.4048421366098198,0.6752948618584884,0.6542144560036884,1,2,0.7090256365154346,2,1,1,2,0.6222613241588988,1,1,0
114,1,0.647024912924546,0.3994782567463191,0.6335671721687994,0.6951419578721388,1,2,0.7031718977159471,2,2,2,1,1.0547271087925765,2,1,0
115,1,0.6472415694219276,0.38264224072569,0.6217835395484135,0.6764932991703763,2,1,0.5225859392121492,1,1,1,2,0.6157129718230863,1,0,0
116,1,0.6589095525967306,0.3844243791204165,0.6092777984416196,0.6693931079712874,1,2,0.7573725467045733,1,1,2,1,0.7625117828174552,1,1,0
117,0,0.6929100611064614,0.401217497899849,0.6144723303997731,0.6745476440711808,2,1,1.137856829453085,2,1,2,1,0.823301767843077,1,0,0
118,1,0.6853083877332531,0.42950590573896397,0.5689224992215969,0.6660751587414597,2,1,1.2488376900619187,2,2,1,2,0.83034614355347,1,1,0
119,1,0.705100548074384,0.43819190223467486,0.5668225920357601,0.7171818983571824,1,2,0.9130898338698898,2,2,2,1,0.9839015402649238,2,1,0
120,0,0.7399398295402517,0.43345363944494597,0.5420883417764841,0.7313368445926856,1,2,1.1170434354935423,1,2,2,1,0.9450287970794307,2,0,0
121,1,0.7411720737301912,0.43411398271768664,0.528601585236989,0.7171982913502345,1,2,0.6124481375300093,2,2,2,1,0.8909456748915545,1,0,0
122,0,0.7486818699168202,0.4554333807784757,0.5344390325004462,0.7161782534387342,2,1,1.0152585951254878,2,1,2,1,0.9601517843584588,1,1,0
123,0,0.7440624233575446,0.45199587641414496,0.5621515341839556,0.706902010109931,2,1,1.175187259370432,2,1,1,2,0.8451451787514088,1,1,0
124,0,0.7406582453743176,0.504798950586063,0.5493471031485315,0.7047445716026097,1,2,0.5050033269108098,2,1,1,2,1.1343940076985746,1,0,0
125,1,0.7311011176965403,0.5360468852381974,0.5536181776618762,0.7112861765493828,2,1,0.7761515215825057,1,1,1,2,1.0220983536601125,2,1,0
126,0,0.7379830831874604,0.5575976900114261,0.5669720508470671,0.7250032380797987,1,2,0.6873759941554454,1,2,2,1,1.1707028584933141,2,0,0
127,1,0.7433137854877953,0.5676296109886682,0.5591866564249086,0.7469389919626578,1,2,0.5984675710387819,2,2,2,1,0.6914719538872305,1,0,0
128,0,0.7379784800568249,0.5306746038319299,0.5810446897716433,0.713247877922706,2,1,0.8231230668352509,2,1,2,1,1.1152582335053012,2,1,0
129,1,0.6690036851671604,0.5171834893047333,0.5568900074653236,0.7446827521361105,2,1,0.9267169159065816,2,2,2,1,0.9155473494392936,1,1,0
130,1,0.642624216767474,0.5380594809252206,0.5314831338708343,0.7202727384533749,1,2,0.8122617822118627,1,1,1,2,0.7799841007326904,1,0,0
131,1,0.6334676622500122,0.569333807770384,0.5307982273246843,0.714081616721582,2,1,0.7484908353180799,1,1,1,2,0.8171487877261825,1,1,0
132,1,0.6144420423693517,0.5264488960589477,0.5716040740654635,0.6919273280664344,2,1,0.5630920035982854,1,1,2,1,0.809164197598875,1,1,0
133,1,0.6069372764073362,0.595215675810263,0.6055444577598531,0.6992585189248577,2,1,0.8591983707774489,2,2,1,2,0.9010400217921415,2,1,0
134,1,0.5577006558860762,0.5777833171077296,0.5894512002527776,0.6908134897933473,1,2,0.6016799702993012,1,1,2,1,0.6811069939903973,1,1,0
135,1,0.5266072529522914,0.5644029966728985,0.6664321867815441,0.6811725290952486,2,1,0.6823359024492675,2,2,2,1,1.185004966260749,1,0,0
136,1,0.516936156354808,0.5750309482930221,0.6611719634168018,0.6896023130442672,1,2,0.6481096868592431,1,1,2,1,0.6852427320227434,1,1,0
137,0,0.5028592525870641,0.6042785291386237,0.6826519467385812,0.6997848092860375,2,1,0.6094870648194046,2,1,2,1,0.7753613798486185,1,0,0
138,1,0.46825381978139813,0.6153885157496088,0.7223787705267635,0.7033411892795526,2,1,0.8910258342002635,1,1,2,1,0.9450170443997195,1,0,0
139,1,0.48084932826579,0.5976860873535905,0.7450492531170891,0.7027565457098088,1,2,0.7212634914758382,1,1,2,1,0.5034664379636524,2,1,0
140,0,0.5141320085149537,0.6006212640471046,0.7150890464826993,0.6564738379330244,1,2,0.7355601749295602,1,2,2,1,1.026955826797348,2,1,0
141,1,0.5564165761188193,0.5748446762597834,0.7128406806588901,0.6431034886330576,2,1,1.7827893750945805,1,1,1,2,0.7932353983487701,1,0,0
142,1,0.5493825033564255,0.581251641439665,0.7087092303291862,0.6478029765376906,1,2,1.1126391939214955,1,1,1,2,0.6441613890092412,2,0,0
143,1,0.5698153491723299,0.5810293013371148,0.6801954542007209,0.6351182740233166,2,1,0.7486297580253449,2,2,1,2,1.08421006318531,2,0,0
144,1,0.5818619481034135,0.5958062232065086,0.6828713734598049,0.6105710242813225,2,1,0.8923939667147351,2,2,1,2,0.7663503889853018,1,1,0
145,1,0.5664293928309738,0.570832734272456,0.659367207343736,0.6024351438667395,1,2,0.8476578415102267,1,1,2,1,0.8226954500860302,1,1,0
146,1,0.5824930096100716,0.558819751266469,0.6425999765738128,0.6034820394164861,1,2,0.8790637151978444,1,1,2,1,0.8460585729480954,1,0,0
147,1,0.5434051003258134,0.5683419213091523,0.6705422169059021,0.6126898789083152,1,2,1.1578113737014064,2,2,2,1,0.987336637746921,2,1,0
148,1,0.5363260031689556,0.5665893559649215,0.6805849563094052,0.6255385295376491,1,2,0.6901649955761968,1,1,1,2,0.8242926091916161,1,0,0
149,1,0.5472831742294366,0.575059884468655,0.7129977059710475,0.6332308551146912,2,1,0.7420856246026233,1,1,1,2,0.6313352973375004,2,0,0
