trial,common,reward.1.1,reward.1.2,reward.2.1,reward.2.2,isymbol_lft,isymbol_rgt,rt1,choice1,final_state,fsymbol_lft,fsymbol_rgt,rt2,choice2,reward,slow
0,0,0.7199260852678261,0.4489098775564401,0.381111295115532,0.6386735726178885,2,1,1.8795988053234396,1,2,1,2,1.8195103105754242,2,1,0
1,1,0.7379608077446902,0.4609525015116693,0.3565335650398942,0.6407170569058239,1,2,1.1601698896665766,1,1,1,2,,,0,1
2,1,0.704656694827813,0.48226392997000816,0.38106281412152315,0.6907407195804189,2,1,0.8188407085490326,1,1,2,1,1.220320764081407,2,1,0
3,0,0.680232492989455,0.5047290129230511,0.35648478669224115,0.7269598161502847,1,2,0.8090244995391913,1,2,2,1,1.2227463386598174,2,0,0
4,0,0.6751217369379476,0.5035406393069359,0.3813082942767696,0.7235857821879006,2,1,0.8281340734911282,1,2,2,1,0.9519917646784961,2,1,0
5,1,0.6702503931626327,0.5287949368186408,0.39464568739633765,0.7302924070890245,1,2,0.7390182404778898,1,1,1,2,1.2069971302335034,1,1,0
6,0,0.6435737083766284,0.565649367775595,0.4249004452495592,0.7161661506535925,1,2,0.7545782004463035,1,2,1,2,0.9851174771856677,2,1,0
7,0,0.6673594342649538,0.6010024510376122,0.4369193021557913,0.7265927223437458,1,2,0.7382907790497484,1,2,1,2,1.0110882117796791,2,1,0
8,1,0.6739209597823395,0.6403493918384561,0.49283815715353824,0.7351485301385016,1,2,0.9617687980526171,1,1,1,2,0.8922187844764267,1,0,0
9,0,0.6945520306420585,0.6433544217335097,0.49794308972341167,0.7341530389589639,2,1,0.977354372859736,2,1,1,2,1.2898701749554675,2,0,0
10,1,0.6510164874454427,0.6113558985156342,0.5073784453650926,0.6960910334472235,1,2,0.8025273709627072,2,2,1,2,1.3004246940308803,2,1,0
11,1,0.7112270257569496,0.5594214486886808,0.503940580827011,0.7165406586108706,2,1,0.955237315456543,2,2,1,2,0.8974957426635228,2,1,0
12,1,0.7377053312668761,0.5790102732510001,0.4972022240869398,0.7178993927010701,2,1,1.0211319408308555,2,2,1,2,0.730140739979106,2,1,0
13,1,0.719499085408287,0.5430383884680361,0.43483242117815046,0.7261815739314641,2,1,0.7077009356044073,1,1,1,2,1.3832718225612552,1,0,0
14,1,0.7045768881187766,0.5277638641255551,0.4369074936466091,0.7363865233087884,2,1,0.9467708577867597,2,2,1,2,0.8142897050347528,2,1,0
15,1,0.6853886458311913,0.5175908111143492,0.48497807474032106,0.7008901392847795,1,2,0.991770102902592,2,2,1,2,0.7490948167915121,2,1,0
16,0,0.7328309575850411,0.4974512645099147,0.4769644766932333,0.6568125965901519,2,1,0.8726758677175894,2,1,2,1,1.424930892671,1,1,0
17,1,0.7240995822701537,0.509377431863259,0.4365393714609098,0.6502236038947196,1,2,1.0710332634298538,2,2,1,2,1.0779613240038088,2,1,0
18,1,0.6674679816508102,0.5090049244398589,0.42630319956037055,0.6919773614251193,1,2,0.7975273543879666,2,2,1,2,0.7163792430610556,2,1,0
19,1,0.6307182358694532,0.5629109922006635,0.4075765788038157,0.7010035199481292,2,1,0.7984434615709688,2,2,2,1,0.9041869413140375,2,1,0
20,1,0.6353963652054216,0.5495331185855878,0.41885003383907615,0.6579673293481951,2,1,0.8450043078128147,2,2,2,1,0.826197591662094,2,0,0
21,0,0.6005935378331273,0.5603243884869595,0.41920240102891654,0.632357244180145,1,2,1.0737192053129547,2,1,1,2,1.1027971705543678,1,0,0
22,1,0.5690617240064499,0.5349603275834627,0.4135856671265219,0.6314508022268941,2,1,0.6610572178242364,2,2,2,1,0.7471071052850675,2,1,0
23,1,0.5506622408018376,0.5401961555119225,0.4221296810150525,0.6074496897024066,2,1,0.8099589891362484,2,2,2,1,0.6527824194208733,2,1,0
24,1,0.5941589438610848,0.5602511453532003,0.4617883869972172,0.5857343625066922,1,2,0.7060911183107237,2,2,2,1,0.6548563173282673,2,1,0
25,1,0.6360628389729728,0.5451314507171459,0.46477355465045506,0.5774069211581834,1,2,0.7169647681457718,2,2,1,2,1.1760797182005263,2,1,0
26,0,0.6535707488312381,0.5669800618783969,0.46534586289496854,0.5882442380708488,1,2,0.7287620589386279,2,1,1,2,1.3332590000745768,1,0,0
27,1,0.6342083510984691,0.5558731634723308,0.4415842544899018,0.6066390483558034,2,1,0.7866772099350783,2,2,2,1,0.7903452548816858,2,1,0
28,0,0.6233846844710633,0.5604590212007661,0.4413708104253926,0.6277939721562386,2,1,1.0378777171690672,2,1,2,1,1.0333035096246022,2,0,0
29,1,0.6351703165191224,0.5459661415935131,0.42685415193645104,0.6046888061179898,1,2,0.7262668722687522,2,2,1,2,1.0763026878403252,2,1,0
30,1,0.6570428503523578,0.534695602339804,0.44220103380603515,0.6064658592136134,1,2,0.6724546157784062,2,2,2,1,0.6981607641537266,2,1,0
31,0,0.6872331977512491,0.5042784347218414,0.4561876473089888,0.615072652285666,2,1,0.9182835405972583,2,1,1,2,1.6503176692058332,2,0,0
32,1,0.6681403813773783,0.5406138200879177,0.45122783938597255,0.5883009403719117,1,2,0.7156656437809943,2,2,2,1,0.9070759938031188,2,1,0
33,1,0.7060593742274848,0.5583746073448123,0.4694866648796061,0.5907121313339445,2,1,0.725697921491701,2,2,1,2,0.9512076492537744,2,1,0
34,1,0.6758325554952349,0.550907203298806,0.46705491817271505,0.5993948294560911,1,2,0.7799745599440939,2,2,1,2,0.7665930666962595,2,1,0
35,1,0.6555236505012043,0.5831644993361746,0.4755855596561829,0.5942801770648858,2,1,1.4376174704048026,2,2,2,1,0.81755815849192,2,1,0
36,1,0.6734992427729644,0.5494431238162625,0.47761898930121904,0.5988016725708843,2,1,0.7752563065996583,2,2,2,1,0.739965386818767,2,0,0
37,0,0.699257258993441,0.5594447633896515,0.46679435812879944,0.6015686569016143,2,1,1.01862952173542,2,1,1,2,1.0986454571784634,1,1,0
38,1,0.6537161628021853,0.5527954419660603,0.45995316256682806,0.6174628188921057,1,2,1.0746636394951565,2,2,1,2,0.7270163323228189,2,1,0
39,1,0.6731087872055197,0.5546203914127138,0.4372648923901372,0.6041769370643433,1,2,0.7247308859814439,2,2,2,1,1.0762897297454401,2,1,0
40,1,0.6728998348262505,0.554930113424072,0.44978566952933297,0.5970258682453329,2,1,0.749607414923048,2,2,1,2,1.1490605833132577,2,1,0
41,0,0.6528173003733659,0.5589153607509207,0.4408638395806519,0.6113852378700189,2,1,0.8039569803304403,2,1,1,2,1.3836081303306855,1,1,0
42,1,0.6002197874024511,0.5649577944815642,0.4411199080533187,0.5910395380824287,1,2,1.2651937431082843,2,2,1,2,1.2062775039339613,2,0,0
43,1,0.5967272250017317,0.535554942796034,0.4416143222681297,0.61092859842349,2,1,1.3300107371378544,2,2,1,2,0.9891438285267213,2,1,0
44,1,0.5872855344157912,0.5252407135958022,0.4770596369910699,0.6283468246961391,2,1,1.1391822959876663,2,2,2,1,1.169042267196346,2,1,0
45,1,0.5951595935684376,0.5255672242218177,0.4484517317976917,0.6274945459434735,2,1,0.7209456154778309,2,2,1,2,0.8528644471762163,2,1,0
46,1,0.6064152611044178,0.4942848465994516,0.4230815056216386,0.6311020382382105,1,2,0.9058332220838565,2,2,1,2,1.187970729170047,2,1,0
47,1,0.644597460167472,0.49581326502178613,0.43400644440110947,0.6264736732941905,1,2,0.8592967852773654,2,2,1,2,1.0859483321573862,2,0,0
48,1,0.6247890892209158,0.46927883450182173,0.4242707427330519,0.5841945473397296,2,1,,,,,,,,0,1
49,1,0.6871406036079498,0.4591523875353918,0.4637710052210034,0.6153901522696329,2,1,1.4636650495167487,2,2,1,2,0.7236984572937217,2,1,0
50,1,0.6903359154362869,0.4826405421753604,0.4857166825323138,0.6671831773225001,2,1,1.741001733070334,1,1,1,2,0.9429663008168063,1,1,0
51,0,0.6616643958677295,0.477579476820428,0.48259659088443474,0.673977075580684,2,1,0.9556341947854889,1,2,1,2,0.8481199762891265,2,1,0
52,1,0.6889941757918028,0.5638054119350289,0.46308249820528635,0.6317168833431732,2,1,0.7458182268564997,1,1,2,1,0.9029803317207552,1,1,0
53,1,0.736947102336454,0.5940080654002968,0.4667187222599948,0.5850370604613255,1,2,1.226015093468959,1,1,2,1,0.7993779511689354,1,1,0
54,1,0.7350751713703341,0.5816678798780597,0.45210840952247033,0.5291076762460354,2,1,0.7321260406779402,1,1,2,1,0.7911016460102474,1,1,0
55,1,0.7227553301251131,0.593769310262658,0.4690236026231679,0.5494711959586456,1,2,0.7269117635096336,1,1,1,2,1.1834808999192319,1,0,0
56,1,0.721843493496571,0.6169764018332963,0.4553181222031255,0.5433741706578017,2,1,0.7556793371722961,1,1,1,2,0.6308925807070409,1,1,0
57,1,0.7121849239350184,0.582807151508612,0.4533570357035075,0.5461074200343597,2,1,1.540835628372406,1,1,1,2,0.6557329475235747,1,1,0
58,1,0.7255496953679392,0.5801042405532213,0.4670232001372442,0.51043247043113,1,2,0.6695164430693694,1,1,1,2,1.2238619402369295,1,1,0
59,0,0.7496979790605247,0.5964956880876134,0.4076985166753655,0.5113175484367236,1,2,0.6858695589944546,1,2,1,2,0.7766006336205464,2,0,0
60,1,0.7385924435119718,0.5895195702352449,0.3809179108329841,0.48378401380367375,2,1,0.7531130316547205,1,1,1,2,0.992248648365603,1,1,0
61,1,0.7435204801491713,0.5910813084512697,0.37899185375814026,0.4813543752197196,1,2,0.7333739353643978,1,1,1,2,1.194401259164806,1,1,0
62,1,0.742864636530562,0.6096448145421981,0.3708163178268844,0.5270337688404245,1,2,1.1274181538092307,1,1,1,2,0.6974170297698947,1,1,0
63,1,0.7486441518998619,0.6239657713233632,0.3446634297044233,0.5570840882958098,2,1,1.306028618104392,2,2,1,2,0.838640979101001,1,0,0
64,1,0.7310919105643509,0.5920526102742785,0.352665160113382,0.566584817346333,2,1,0.6841786782679264,1,1,2,1,,,0,1
65,1,0.6893907950903662,0.5886457331152906,0.3701730768491098,0.5268151017257887,1,2,0.7161658865188656,1,1,1,2,0.8252212142706412,1,1,0
66,0,0.665753447025627,0.5860973179456308,0.3738100844133123,0.5201493661957213,1,2,0.6979962264822461,1,2,1,2,1.371263887385794,2,1,0
67,1,0.6803692086858996,0.5971645541499611,0.3378215352342506,0.5135018242683409,1,2,0.6666774148543482,1,1,1,2,0.7247558981180191,1,0,0
68,1,0.6695428853249232,0.605639055158683,0.3577044331363591,0.510114248825184,2,1,0.8218590406368094,1,1,2,1,,,0,1
69,1,0.6643934611047309,0.6165705693921194,0.35278838848725,0.4473679134965518,2,1,0.6826267203750831,1,1,2,1,0.8430605935591302,1,0,0
70,1,0.6452160633714661,0.5755928548700266,0.34138271701424827,0.4532500203268629,2,1,0.8747536831879188,2,2,1,2,1.5908782846136091,2,1,0
71,0,0.6327495365905966,0.5696441156572174,0.3278246949405954,0.48651894001137613,1,2,0.9553536369603535,1,2,1,2,1.0224666246185734,2,0,0
72,1,0.6075144452950085,0.5531295798611662,0.3277776455498951,0.4728682629809233,1,2,1.2710712939324367,1,1,2,1,0.8580883675786026,1,0,0
73,0,0.6165383408491283,0.5602369134722213,0.32999663146219643,0.4724239834042927,2,1,0.848450558388322,1,2,1,2,1.6738896494662185,1,0,0
74,1,0.6036985267601973,0.5403477242636365,0.3399410387249114,0.48336783800243016,1,2,0.9785172865504137,2,2,2,1,1.6460267316460886,2,0,0
75,1,0.6129238377757095,0.5301615606937733,0.29733087436659633,0.48768081503389726,1,2,1.3847830980639628,1,1,1,2,,,0,1
76,0,0.6365396908380924,0.5268358423863178,0.3333389870631594,0.4303677577732057,1,2,1.2097150153285838,1,2,1,2,1.2192473516515747,1,0,0
77,0,0.6208628341903828,0.5534227270212304,0.3202294776958774,0.4348385580973589,2,1,1.0103348341617675,1,2,2,1,1.0940718523352189,2,1,0
78,1,0.6276174935557545,0.5007277998459063,0.3114356307392354,0.4278848642416042,1,2,0.9080318793239712,1,1,1,2,0.8794424041307138,1,0,0
79,1,0.6250651452214626,0.46901368953722455,0.2799509322733078,0.3873360885918813,2,1,0.7735229353756949,1,1,1,2,0.6548876578362979,1,0,0
80,1,0.6469186298625225,0.4791523417084514,0.2661989142661456,0.3978194218109484,2,1,0.7984148332216137,1,1,1,2,0.8861601216731287,2,1,0
81,1,0.641066113221203,0.4798591742627431,0.2546022813208535,0.42683169241176366,2,1,1.1591654866260797,1,1,2,1,0.7469576351659271,2,1,0
82,0,0.6420400166632833,0.5072909813011637,0.29955014429094073,0.41204453302361377,1,2,0.8731164429482305,1,2,1,2,1.5212692062323185,1,1,0
83,0,0.6628009156397521,0.501720193149747,0.2972310699786569,0.4123982473051709,2,1,,,,,,,,0,1
84,1,0.6496568798476932,0.4861749917207696,0.3029986001070152,0.4221849173080547,1,2,0.7443961512653914,1,1,1,2,0.7932056790205024,2,1,0
85,0,0.6774596277404045,0.5091169876707068,0.28075857956289596,0.40597263694626795,2,1,1.5685439531052907,1,2,2,1,1.4137652336721658,1,0,0
86,1,0.6543963239371333,0.48744519915476525,0.269318199188914,0.41025022033120506,2,1,0.6547267363766878,1,1,1,2,0.929828901916153,2,1,0
87,1,0.6469496013312603,0.4522323733722633,0.26752405590367223,0.34898651984024553,2,1,,,,,,,,0,1
88,1,0.5927878515630902,0.4502336692491564,0.2599910654941082,0.3374042937204784,2,1,0.6287641382605216,1,1,2,1,0.9649920488527641,2,1,0
89,1,0.6148454581810411,0.4671856174776586,0.2759298787137543,0.3552936280059799,1,2,0.7517539384316478,1,1,1,2,0.7700715618339018,2,1,0
90,1,0.6052618788392476,0.4175685815554837,0.3144129568392271,0.2998604227563999,1,2,0.6697991103510503,1,1,2,1,0.7554566387489103,2,0,0
91,1,0.61029012215077,0.4294935482592326,0.3572684693050365,0.25394833294120644,1,2,0.6571143407236377,1,1,2,1,0.685113167865893,2,0,0
92,1,0.5798341904409456,0.4411662248254716,0.4012268888404425,0.2632031787846607,2,1,0.9897383941424778,2,2,1,2,1.4447992685600184,1,1,0
93,0,0.6183420025884115,0.4174467992447155,0.40200961521036255,0.258258211571913,2,1,0.8917932767981256,1,2,2,1,1.0750198364330572,1,0,0
94,0,0.6090489713222556,0.39288979369044275,0.4080939349359185,0.266236004480349,2,1,,,,,,,,0,1
95,1,0.5852019091287444,0.3809231763102807,0.4272900995244811,0.2887824530337057,1,2,0.8004477473859879,1,1,2,1,0.9101539933990352,2,0,0
96,1,0.6112108057521807,0.3618367484675482,0.4195111408408585,0.2982372210382902,1,2,0.7344895369415099,1,1,2,1,0.8048595267155179,2,0,0
97,1,0.6071590058730174,0.3879901465757551,0.4391644394342468,0.3324710104448682,1,2,0.9741492031216694,1,1,1,2,0.7434125414465598,1,1,0
98,1,0.576661383453454,0.38919525311676006,0.3818444558157015,0.3240439791051495,1,2,1.0411362260419992,1,1,2,1,0.9020563894100633,1,1,0
99,0,0.5598274566400661,0.37664132321207777,0.36379611463890615,0.32415618651554634,1,2,,,,,,,,0,1
100,1,0.5505403206487125,0.339740097050659,0.38172718926131827,0.3531449213001355,1,2,0.9253185807929185,1,1,2,1,0.9811589298296894,2,0,0
101,1,0.5803644521988242,0.31966740333287236,0.3963314804315839,0.30680637073572337,2,1,1.1017611256547752,1,1,2,1,0.8684247084956951,1,0,0
102,1,0.5915041562179726,0.2819774655759013,0.45689504394930575,0.30054464758329935,1,2,1.2531095661170184,2,2,1,2,0.8560611790844632,2,1,0
103,1,0.6334739014866786,0.3206128551678384,0.4813544747113912,0.3133955983157943,2,1,0.7790069217326163,2,2,1,2,0.9569004718860015,2,1,0
104,1,0.6529212083925336,0.3302109157349656,0.49232653727850445,0.32713550742966413,2,1,1.1913898581506146,2,2,1,2,0.8431136313438401,2,1,0
105,0,0.6897393192113702,0.31320038704654873,0.43080191086602104,0.3100701824495271,2,1,1.0284363888622465,2,1,1,2,1.3787096690584804,1,1,0
106,1,0.7088460893511586,0.3245663045395986,0.44004054945318416,0.32779658400862066,1,2,0.9609876961385453,1,1,1,2,0.891928884769186,1,1,0
107,1,0.7295530155848691,0.32412207319619424,0.4728146261696992,0.33224328326072716,1,2,0.978788201142379,1,1,2,1,0.7472743551161329,1,1,0
108,1,0.7339211437768811,0.3246379351508413,0.47914383932038773,0.2939008053704699,1,2,1.0032479615865668,1,1,2,1,0.7463061142016159,1,1,0
109,0,0.7421994957203838,0.30398603581161066,0.4630739622178681,0.3598786972314631,2,1,0.7102346952087828,1,2,2,1,1.3181839139415388,2,1,0
110,0,0.6750561072106431,0.3088831252463228,0.49983418910360855,0.3628308718128507,2,1,0.6999848420418857,1,2,2,1,0.9779284466048921,2,0,0
111,1,0.6975967839265889,0.30228107201400656,0.5130523118553013,0.35472147448088553,1,2,0.7257651227755559,1,1,2,1,0.9122306034641952,1,1,0
112,1,0.6475468947223244,0.29196060994560247,0.4535093921294686,0.38162877799644845,1,2,0.992675060097099,1,1,1,2,0.7032099009484227,1,1,0
113,1,0.6676425058659908,0.3106440567331462,0.43327980093458907,0.388408405256429,2,1,0.786916181315064,1,1,1,2,0.6216624994840458,1,1,0
114,1,0.6200254185442662,0.30974625760755026,0.4641755452099916,0.39371568503682564,2,1,0.825901363583398,1,1,2,1,0.712121755465887,1,1,0
115,0,0.5684838194835788,0.33311857306800785,0.45876922346200133,0.422302455762149,2,1,0.8539824595609389,1,2,1,2,1.0149189862913772,2,0,0
116,0,0.5245593632814554,0.35544570117587765,0.43602316443355216,0.4716235335919659,2,1,0.7240956379737327,1,2,1,2,1.6491363731020101,1,0,0
117,1,0.5127517066144862,0.3416357085264563,0.4416619883165291,0.47698167635366073,2,1,0.6399105107930154,1,1,1,2,0.6089729082395934,1,0,0
118,1,0.5063379612621368,0.3133839091074493,0.45053855171927276,0.45473622606067754,2,1,0.643757859611469,1,1,1,2,0.7937896973498937,1,1,0
119,1,0.5008944923060192,0.30030346335274594,0.45558686533784404,0.42670170019840503,2,1,0.7717555114841161,1,1,2,1,0.7093318474717307,1,0,0
120,1,0.5105491550718668,0.3044450783520808,0.41547472094094684,0.41134324743177064,1,2,0.8100222728562585,1,1,2,1,0.7180556589364642,1,1,0
121,1,0.5002967852405753,0.2963013332371829,0.39195042297531213,0.41074067487273713,2,1,0.632338764382439,1,1,2,1,0.6528200883021782,1,0,0
122,1,0.45862382208314756,0.265584288530504,0.37498765693422476,0.3448174480580044,1,2,0.8584849455564836,2,2,2,1,1.4366046295353954,1,0,0
123,1,0.4723922116138083,0.2525345598587121,0.37378302494372284,0.3829728911470814,2,1,0.8412651440203263,2,2,1,2,1.2168995256433845,2,0,0
124,0,0.49701406872684323,0.2673299454522739,0.3600266930486591,0.3570013464049753,1,2,1.4680192707965034,1,2,1,2,1.7360662056198635,2,0,0
125,0,0.49638332984608113,0.2655681308613067,0.35924261117388445,0.34118807238671534,2,1,1.2755556988649914,1,2,2,1,1.339009079405514,2,0,0
126,1,0.5151274511772658,0.2651130690969081,0.3811844538592054,0.31137134085129103,2,1,0.9070805140681841,1,1,1,2,0.6091907850459393,1,1,0
127,0,0.517620273318833,0.25809759327060333,0.39245888396484885,0.2598066517145088,1,2,0.8281642085958083,1,2,1,2,1.985169008214143,2,0,0
128,0,0.5428774843927586,0.26416743438536366,0.41143016995114795,0.300473742378635,1,2,0.8719384617052128,1,2,1,2,1.3193676208547913,1,0,0
129,1,0.5734789553951811,0.27147155665714023,0.3893519279169435,0.2688618360055872,1,2,0.7040160149999792,2,2,1,2,1.6661340789160022,1,0,0
130,1,0.5909766969382929,0.25980242186137437,0.3707941440193461,0.3093191125045456,2,1,1.130719755881728,2,2,2,1,1.4351237904902518,2,1,0
131,1,0.5967549675666365,0.2709475840097983,0.4019344478511214,0.29407981614777334,2,1,0.6482540172346489,1,1,2,1,0.6114274125184238,1,0,0
132,1,0.5822702222176299,0.30967920983531627,0.40116333626922174,0.32412945070748,2,1,0.7031918198863423,1,1,2,1,0.6500214411271372,2,1,0
133,1,0.5474049948417656,0.32028354466493836,0.4429305413422101,0.34091797397846946,1,2,1.2418447626241687,1,1,1,2,0.6829286741240139,2,0,0
134,1,0.5521284976686464,0.34359148332563016,0.4202084591883595,0.3506393823158917,2,1,0.9590587480852264,1,1,1,2,0.6250701771250533,2,0,0
135,1,0.5184925701276475,0.36973425215678,0.40605837597896777,0.3441946432516203,1,2,0.8903485998780525,1,1,2,1,1.2180298934208622,1,0,0
136,0,0.5038180320731216,0.37912845810425844,0.36487936071969873,0.416642230732861,2,1,0.8988358507695011,2,1,1,2,0.9661151842055915,1,1,0
137,1,0.49677340590850627,0.35886835842515197,0.34899495438683714,0.41665871923247794,1,2,0.8657140558261744,1,1,1,2,0.8189112246936929,1,1,0
138,1,0.4795539257535655,0.3850206735384982,0.32928739121828343,0.37353490625614794,1,2,1.3904246910169604,1,1,2,1,1.0371354895405602,1,0,0
139,0,0.5105395772100898,0.38550641391017265,0.32606639898096645,0.3524374601795528,2,1,0.6969445113272741,1,2,2,1,1.5889858000373351,2,0,0
140,0,0.526760969489113,0.3570057646108207,0.3249789831936645,0.3666502574407032,1,2,0.7567946373974337,1,2,2,1,1.345395310796448,2,1,0
141,0,0.521728615170066,0.3837233638395631,0.34533868913274773,0.3672682672994115,2,1,0.761160611368723,1,2,2,1,,,0,1
142,1,0.5360638587489748,0.39191797033223946,0.31555381981544794,0.3425210058889834,2,1,0.7862049928444321,1,1,1,2,0.6813872635184453,1,1,0
143,1,0.550681955906941,0.4245227323328911,0.30052896398656115,0.28396415173183787,2,1,0.9392099600136135,1,1,1,2,0.8068906327744116,1,0,0
144,1,0.5630416441219893,0.4563678829886636,0.321524625940769,0.27704897994030486,2,1,0.9452821836139265,2,2,2,1,0.7285185672926673,2,0,0
145,0,0.6033996099422286,0.4300834007557903,0.3238715586209865,0.2559365368192421,2,1,0.6932586866696511,2,1,1,2,1.1120555787765625,1,0,0
146,1,0.5585780899238961,0.41683015915914634,0.274018683827159,0.2614815295334977,2,1,0.7331452099197122,1,1,1,2,0.5131553292876561,2,0,0
147,0,0.5307998908806308,0.4354337811546229,0.26216039932985513,0.2727079486155622,2,1,1.3378536994914612,1,2,1,2,1.1377020596437433,2,1,0
148,1,0.5131444082299601,0.395057774432364,0.25274772129016787,0.27076138310798714,2,1,0.6816102632938055,2,2,2,1,0.70907690448621,2,0,0
149,1,0.47699004932267797,0.3769705511584738,0.26153234937948877,0.2810789805111506,2,1,0.8625429387575423,2,2,2,1,0.6117567892133593,2,0,0
