trial,common,reward.1.1,reward.1.2,reward.2.1,reward.2.2,isymbol_lft,isymbol_rgt,rt1,choice1,final_state,fsymbol_lft,fsymbol_rgt,rt2,choice2,reward,slow
0,0,0.6244395774290648,0.30444777678801077,0.6146622917192983,0.3035363668970621,2,1,1.389778594373638,2,1,1,2,1.030101052045211,2,1,0
1,0,0.6423685838175681,0.3491543981463365,0.6330027986871727,0.3104746566218232,2,1,0.9347116929311596,2,1,1,2,0.7632634389774466,2,0,0
2,0,0.6477304526495076,0.38196157632438743,0.6729739838414646,0.3469175682071085,1,2,0.6263991352425364,1,2,1,2,0.8902835080516525,1,1,0
3,0,0.6339231149983093,0.3788624073140703,0.6170657487602904,0.3847081885657622,1,2,0.5172675656795036,1,2,1,2,0.8420546837623988,2,0,0
4,0,0.6016860962520187,0.32086208868867483,0.5898735593016582,0.38076437999015544,1,2,0.6080254605476512,1,2,2,1,0.8993834056236665,1,1,0
5,1,0.5731470959229832,0.3282725906215,0.5923868893499636,0.4189398598226832,1,2,0.5568747365068702,1,1,2,1,0.8095111814800475,1,1,0
6,1,0.5722756828663305,0.31826868524513663,0.6298832887317994,0.4518075568661064,1,2,0.5185504170840431,2,2,2,1,1.1163139704221976,2,1,0
7,0,0.5789964893549993,0.3060470584348032,0.6448259081291493,0.4882158481968275,1,2,0.4058158944026218,1,2,2,1,0.49870072495832574,2,0,0
8,1,0.549460590453628,0.30799543047718686,0.6056538172768713,0.4795555805057625,1,2,0.435136145883007,2,2,2,1,0.8419914000442077,1,0,0
9,1,0.5351131862487875,0.3287710656335673,0.6091160090622804,0.5098565362544148,2,1,0.5892178403446451,1,1,1,2,0.6484224724736123,1,1,0
10,1,0.5413955271341787,0.35463576802091984,0.599255851693653,0.5144541915030331,2,1,0.5808478150102019,2,2,1,2,0.4804168528789887,1,1,0
11,1,0.5560034517541148,0.34972906967375894,0.6108376700264601,0.47863195434520067,1,2,0.5265509860364546,1,1,1,2,0.7373493583800155,1,1,0
12,1,0.5490355904564159,0.34292724369165417,0.6044848550030752,0.4928243766530607,1,2,0.5115165822935523,1,1,1,2,0.6192860451265005,1,0,0
13,1,0.6002970091350526,0.3644154531522871,0.585834792795823,0.4943329010657639,2,1,0.4606666065992613,1,1,1,2,0.492963603726821,1,1,0
14,1,0.6321086652835363,0.30247674085919596,0.596112009420784,0.5154092201840458,2,1,0.4385001276205003,2,2,1,2,0.8447668431872444,1,0,0
15,0,0.6910253703596485,0.2931759689059672,0.5449429019918364,0.5309084124415255,2,1,0.3988251528062392,2,1,1,2,0.45191326272833976,2,1,0
16,1,0.6865609407206823,0.3034147491785757,0.5482411596407661,0.5161156201464463,2,1,0.3295195349310234,1,1,1,2,0.6130086014636618,2,0,0
17,0,0.6946333223570956,0.2949677410098066,0.5353132283930675,0.5285622654340727,1,2,0.4736973272265459,1,2,2,1,0.4508540138012904,2,1,0
18,1,0.70372525272593,0.2973146619767447,0.5323150615737537,0.5515142262495807,1,2,0.40798321113106795,1,1,1,2,0.6359239377889025,2,0,0
19,0,0.715931618583079,0.2774057946352939,0.5702539687728259,0.5211711191264978,1,2,0.4826673424940964,1,2,1,2,0.8337021367879061,2,0,0
20,0,0.740094206401946,0.2870119595453522,0.5791382897211357,0.49959110240699833,2,1,0.6506750715489034,2,1,1,2,0.6968411479174392,1,1,0
21,1,0.7445276097277443,0.28179577196800487,0.575376031367385,0.4933286633445384,2,1,0.5859668652446999,2,2,2,1,1.1456489881093148,2,1,0
22,0,0.7017992775604894,0.27507759435141876,0.5313793475273418,0.47778324071350986,2,1,0.6134353145462228,2,1,1,2,0.6033496976997412,1,1,0
23,1,0.7080418379633673,0.2575158341051671,0.5334131570608418,0.47733231052195624,1,2,0.7791057648755668,2,2,2,1,0.9799517175379151,2,0,0
24,1,0.7192896285435644,0.2804711452667177,0.5136834876279561,0.45928363223802826,1,2,0.6144122946425341,1,1,2,1,1.0890718357586593,2,1,0
25,0,0.7415663201551583,0.283202387608272,0.5196727652209863,0.44696468953271773,1,2,0.5395006432336231,1,2,1,2,0.6655446362674411,2,1,0
26,1,0.7487447807684948,0.25235855337000856,0.5048951399030726,0.4798312635287547,1,2,0.4743910373399558,2,2,1,2,0.791082058189204,2,1,0
27,1,0.726961257671481,0.2570249851513777,0.4869274039640423,0.46219379417205975,2,1,0.5827936387213413,2,2,2,1,0.8200741383843706,1,1,0
28,1,0.7060110341516461,0.2839109071301289,0.48480163274883603,0.47356210693753076,2,1,0.6078774971829262,2,2,1,2,0.7801198111483245,1,1,0
29,1,0.6816565296782113,0.3021470134687808,0.514410251177348,0.48405424415799464,2,1,0.4838866088321083,2,2,2,1,0.8562648923907545,1,0,0
30,1,0.7115265325101185,0.3071315942756213,0.5226716560321105,0.47738441818066857,2,1,0.5251964130766282,2,2,2,1,0.5739396436038078,2,1,0
31,0,0.6923859219849033,0.35948319864114797,0.5547536899486755,0.4910803652506621,1,2,0.8584304010182677,1,2,2,1,1.492059249234444,1,1,0
32,1,0.6749310498474888,0.35887469991058296,0.5411203802920341,0.42828447747024123,1,2,0.5970011351892026,2,2,2,1,0.7900637930033554,1,0,0
33,1,0.6512871914958795,0.3178162030631877,0.5584837542024044,0.40232605933549426,2,1,0.5071120353895822,2,2,1,2,0.38661199756825226,2,0,0
34,1,0.6973068530392401,0.34772623979143974,0.545319973169325,0.4272683426955917,1,2,0.7091353665891802,2,2,1,2,0.8900831096034381,2,0,0
35,0,0.6710320938003524,0.34298700970212526,0.5406147019807195,0.38372575363148775,1,2,0.4476027373493707,1,2,2,1,1.070767471806903,2,0,0
36,0,0.7141301898245715,0.30667302011747744,0.4989066258594175,0.3681637601722825,1,2,0.4907757951223175,1,2,1,2,1.1321261612210947,2,1,0
37,1,0.7477769928873644,0.35142132936075987,0.4634067904688559,0.3943483304640712,1,2,0.5721535359480185,1,1,1,2,1.0663168181890796,1,0,0
38,1,0.733522940494857,0.3043405655103477,0.46687936649533834,0.4120258537324626,2,1,0.6916087896861427,1,1,2,1,0.7683146852286882,2,0,0
39,0,0.708841736344854,0.2900405760436935,0.4707262270862134,0.41617596403756757,1,2,0.7114138818542415,1,2,1,2,0.6744109867759107,2,1,0
40,1,0.670568632853823,0.30111383921403395,0.5190441124370742,0.43236044305111193,1,2,0.5679400456065196,1,1,1,2,0.6601697389924084,2,1,0
41,1,0.7190387793547898,0.2927743545553565,0.49563021752440495,0.4048339887372714,2,1,0.6222422988976177,1,1,2,1,0.565176355154108,2,0,0
42,1,0.7102591507428304,0.3061509909485285,0.5075206819969841,0.4245219987741429,1,2,0.5793865637824638,1,1,1,2,0.6207515152673295,2,1,0
43,1,0.6799187249962864,0.3100112867579855,0.5224718445322547,0.42829947567603893,2,1,0.438706251741678,1,1,1,2,0.6018911586324975,2,0,0
44,0,0.63657417454754,0.3350762306967885,0.5433842639967208,0.4421031380569253,1,2,0.5377895719866501,1,2,2,1,0.893278636111063,2,1,0
45,1,0.6556527081649399,0.31718570955334613,0.5555392828593101,0.46268074803316434,2,1,0.5497336207445187,2,2,2,1,0.517338383171591,2,1,0
46,0,0.6282381157649559,0.33584915812499144,0.5273551308187674,0.4601507672699585,2,1,0.5969031960994471,2,1,1,2,0.5532552090808167,1,1,0
47,1,0.6360624297765605,0.2961764932171467,0.5261791210152085,0.4313046459436718,1,2,0.6089355407093535,1,1,2,1,0.9732816134564928,1,0,0
48,1,0.5995832929824951,0.2861042729782355,0.5416939426084437,0.3823806812350776,1,2,0.6561563457435113,1,1,2,1,0.6249008178383519,2,0,0
49,0,0.6037775471438643,0.2808588743553413,0.5354871945050905,0.3707380968196978,2,1,0.8382040200813208,2,1,1,2,0.8098797338097938,2,0,0
50,1,0.592102621805128,0.2623255533846849,0.510287874453609,0.3494726772787051,2,1,0.8919551023100212,2,2,1,2,0.8215200207087037,2,0,0
51,1,0.5698183585629737,0.27906266763583565,0.5146316088913406,0.36410242869573206,2,1,0.6259407803008799,2,2,1,2,0.6991229780469439,1,0,0
52,1,0.5684724625884576,0.2893621760387993,0.5824473494571185,0.3247043169034791,2,1,0.7302410898773815,2,2,2,1,0.9472029951866716,2,0,0
53,0,0.543572478283207,0.29873422959560814,0.579781465782143,0.2952726312103331,2,1,0.5636430810227466,1,2,2,1,1.136295654308924,2,0,0
54,1,0.5754885011480813,0.2908328108242677,0.6108775468884905,0.2889745241884496,2,1,0.5612898307008436,1,1,1,2,0.7619323713988706,1,1,0
55,1,0.5551524973059874,0.3318375579725439,0.6088697306740185,0.2594084089992119,2,1,0.6610328083916102,1,1,2,1,0.6680964769366255,1,1,0
56,1,0.5414807409145732,0.32365676835968227,0.6313360473464737,0.25669616788784966,2,1,0.5239111508635688,1,1,2,1,0.5291407969343709,1,0,0
57,1,0.5291224623245063,0.3346751855932209,0.6167612888498595,0.27813986676676317,2,1,0.5161284587193222,1,1,1,2,0.5930983377766097,1,1,0
58,1,0.5260897606021717,0.34781222930482847,0.6412188362137892,0.2946127712295447,2,1,0.4528558888050611,1,1,2,1,0.5632474071026081,1,0,0
59,1,0.4958115086014052,0.32979255183762146,0.6562365260980066,0.2583030787893219,2,1,0.5693172198916727,2,2,2,1,0.6807273047270428,2,0,0
60,1,0.5134739936980058,0.33902227079902125,0.64732253703585,0.2556676480609452,2,1,0.5587666183782858,1,1,1,2,0.5669434776937123,1,0,0
61,1,0.5191531879191679,0.3678176714777205,0.6734607083122988,0.26852617465330086,1,2,0.5980332625258598,1,1,2,1,0.6301753652151092,2,0,0
62,1,0.5613816572027714,0.3928393735166623,0.6460370016109929,0.2607055028236034,2,1,0.6119556809026108,1,1,2,1,0.5473472218000097,2,1,0
63,0,0.5525337060777562,0.41527811572752116,0.5938580089661627,0.26815109120145575,1,2,0.5282545235058933,1,2,2,1,0.672954255816876,2,0,0
64,1,0.5431436485034986,0.37975013584803663,0.5839955473028966,0.27741462798853983,2,1,0.7471161458161077,1,1,1,2,0.6240175579187053,2,0,0
65,1,0.49364849074706285,0.368968410090067,0.6153726417160137,0.30765992052932306,2,1,0.846357374015497,2,2,1,2,0.9579946775374992,1,1,0
66,1,0.4887682417622734,0.3205437858405027,0.5854951697183297,0.3004651037305426,1,2,0.5688850824917608,2,2,1,2,0.5824633579759393,1,0,0
67,1,0.4682190466864138,0.29650029687615964,0.5710507963039086,0.30297620876875325,2,1,0.5253627588572272,2,2,1,2,0.42909676954877796,1,1,0
68,1,0.3890979411361646,0.2682073584480025,0.5696743756225544,0.29552281126591695,2,1,0.4955350322088634,2,2,1,2,0.536362072078191,1,1,0
69,1,0.3949613696823374,0.28048257250681097,0.5804721126588197,0.29906925336443146,1,2,0.5966036531572172,2,2,2,1,0.6599132892479247,1,0,0
70,1,0.35282782847043404,0.26466582291346263,0.5558205033741608,0.31365603057044317,2,1,0.6142049651207344,2,2,2,1,0.5993007450306322,1,0,0
71,1,0.34554379598557317,0.2601955644092979,0.5402961635071435,0.337203814609692,2,1,0.677710479394591,1,1,2,1,0.6249050367514428,2,0,0
72,1,0.3445865000649371,0.26417724881309423,0.514400528362533,0.3244897597263754,1,2,0.7014900905232935,2,2,1,2,0.8279174020899518,2,0,0
73,1,0.323504657403235,0.2859371940218667,0.5123982459737784,0.3379639188437635,1,2,0.4867937423841795,1,1,2,1,0.5217076720036857,2,0,0
74,1,0.287820120382839,0.28668027195927964,0.5535320999894666,0.3454852151238311,2,1,0.4688464794198808,2,2,2,1,0.4502232860577351,1,1,0
75,0,0.252819303674104,0.2970663009454932,0.4952933254483838,0.3346174654316427,1,2,0.6060259963487624,2,1,1,2,0.8421022972288483,2,0,0
76,1,0.2771009150455195,0.2867085496426405,0.47712596114210504,0.32903909411450294,1,2,0.618397963589814,2,2,1,2,0.6522592740038817,2,0,0
77,0,0.25750561936470695,0.296603295492422,0.4808930967571318,0.3289894502100976,2,1,0.6071518438620842,2,1,1,2,0.7409423669123498,2,0,0
78,1,0.25078574420632416,0.31449960523809134,0.4564692540873756,0.28993924983630626,2,1,0.7889563279059075,1,1,1,2,0.575642879721272,1,0,0
79,1,0.2717014584989022,0.3113441644242607,0.48779312778952244,0.25457572732072764,2,1,0.539997872459935,2,2,1,2,0.6891774894356786,1,1,0
80,0,0.26856758006227044,0.2814963365238605,0.5089739059669123,0.26158796197096557,2,1,0.6078521836971049,2,1,1,2,0.6061127854518418,1,0,0
81,1,0.26338359601733563,0.3174370836755341,0.531824645893804,0.28195403636945715,1,2,0.6536542279973219,2,2,1,2,0.5492017361430044,1,0,0
82,0,0.2720889298120252,0.3164119165915589,0.5040902073096527,0.2813833298686972,2,1,0.5851746133448614,2,1,1,2,0.7606552456636564,2,0,0
83,1,0.29022438923101035,0.2968830821763384,0.5330683277369718,0.3339512942232161,2,1,0.6048570556376944,2,2,2,1,0.6170723203322268,2,0,0
84,1,0.3203421439814013,0.3051952358453143,0.5253556288217642,0.3460182081361967,1,2,0.6167390260743559,1,1,2,1,0.6083756304651615,2,1,0
85,0,0.30201907781131876,0.30288845872801096,0.5245530218068821,0.310307592201577,1,2,0.5287285487029294,1,2,1,2,0.827844475137681,2,1,0
86,1,0.28947380264268596,0.30701462997457984,0.5614949635184557,0.307891001901198,1,2,0.5443677639959787,1,1,1,2,0.617163328348397,2,1,0
87,0,0.28617957343193634,0.28286178214498836,0.5282310699563935,0.2555470138260518,2,1,0.9286331409603008,1,2,2,1,0.7660548537278373,2,0,0
88,0,0.28641134790860173,0.2630008041531804,0.5022353637568653,0.28412835063098757,2,1,0.5829578750417568,1,2,1,2,0.9258525748482498,1,0,0
89,0,0.2983486672370897,0.2738855852070712,0.5210168106198907,0.2956004694722119,1,2,0.649188506831706,1,2,1,2,0.7802252840156143,1,0,0
90,1,0.30348231782769874,0.27297254919064406,0.48458415102924257,0.30878413186482473,2,1,0.42535790710462607,1,1,2,1,0.8092580466000072,2,1,0
91,1,0.2839278488188586,0.27077393549852924,0.5061287242063544,0.3194437570158102,1,2,0.6359718526073266,2,2,2,1,0.8571306739504507,2,1,0
92,0,0.3504101792756765,0.25919002086138,0.49789133350570713,0.3423337015855393,1,2,0.5160434777244518,2,1,1,2,0.8759223225461028,1,0,0
93,1,0.3893278453072998,0.2502449197168217,0.48353957086929267,0.3599034128135777,1,2,0.6827330972955679,2,2,1,2,0.8212026980581868,2,0,0
94,0,0.4175024176426698,0.25300872218442083,0.44653776564600056,0.34688691621426027,1,2,0.7263075546579785,1,2,1,2,0.784299851526157,2,1,0
95,1,0.3988415766103284,0.27264780305512787,0.43921255146460236,0.3279089424828112,2,1,0.6478544257479371,1,1,1,2,0.8329538821380993,2,1,0
96,0,0.3814537349133871,0.2610127027052709,0.4437267556644567,0.28642184065609033,2,1,0.8962683398458466,1,2,1,2,0.7363811174654984,2,1,0
97,1,0.39235505177431446,0.2621925020533549,0.4255910129881604,0.3389681180436767,2,1,0.563777182240301,1,1,2,1,0.6116784379410092,2,1,0
98,0,0.3728274695902847,0.2689484120950815,0.48107446180422136,0.3511792694276268,2,1,0.7829519082915795,1,2,1,2,0.6172672944630904,2,0,0
99,1,0.367562856506334,0.3166130703231227,0.5353298069792908,0.3894566167640453,2,1,0.5018742528409348,1,1,1,2,0.5844369059777819,1,1,0
100,1,0.33987628820092297,0.31951039751982013,0.5559606742533788,0.365735926577915,1,2,0.673200459619693,1,1,1,2,0.5745800145778048,1,0,0
101,1,0.348663322775369,0.28514503034730554,0.5022146602747073,0.3423544510562939,2,1,0.6401841375445656,1,1,2,1,0.659292204742087,1,1,0
102,1,0.38208552953294467,0.2724704535715814,0.4872474331652241,0.3500335095921164,2,1,0.49106961239522207,1,1,1,2,0.39834690869247424,2,0,0
103,0,0.3476992646370949,0.26466722530067033,0.48474660540837156,0.37092216652715676,1,2,0.5745625362178544,1,2,2,1,0.674944679481996,2,0,0
104,1,0.34374566500114145,0.2762778809835127,0.562890607674158,0.38447468888744546,1,2,0.5385296901586116,1,1,1,2,0.6663908300070034,1,0,0
105,0,0.3574009041927447,0.3027475733802893,0.5459833603483677,0.4137030107026631,1,2,0.5708755061568809,2,1,2,1,0.6379411816997163,2,1,0
106,1,0.3793212574679958,0.2990108882128215,0.5427012771135042,0.3743080537562742,1,2,0.5812416808294074,2,2,2,1,0.7954968510312028,2,1,0
107,0,0.39889458664984867,0.3150110533953904,0.6162491823817275,0.36835381171595616,1,2,0.609003344696248,2,1,1,2,0.541859317880153,1,1,0
108,1,0.4216171615859737,0.33309300412897935,0.5800605861298984,0.39536062281103074,1,2,0.47535716879792744,2,2,2,1,0.7592449227631732,2,0,0
109,1,0.38539483201423486,0.3635937846529438,0.527145335284648,0.39797536815598067,2,1,0.5772162335415487,2,2,1,2,0.852577862329781,1,1,0
110,1,0.37746884821598137,0.3171522661253787,0.4667828158310221,0.4268250562574255,2,1,0.5706500955748197,2,2,2,1,0.8527830823913973,2,1,0
111,1,0.40204410727297185,0.3769319140889971,0.4277412293155787,0.46722021748851095,1,2,0.6390878224337939,2,2,1,2,1.1087847145099659,2,1,0
112,0,0.40027210551281467,0.40853877920799153,0.4466751310096367,0.46719111503469346,1,2,0.6081007983084419,2,1,2,1,0.9621355422750639,2,0,0
113,1,0.3911727043196398,0.42218282495456244,0.38521132326730734,0.4633944033953803,1,2,0.6576838942019094,2,2,2,1,1.1035418089923041,2,1,0
114,0,0.39833867328694295,0.42483848289267406,0.40852769457155125,0.4937259471409418,1,2,0.6559577554035059,1,2,2,1,1.1323569961205067,1,1,0
115,1,0.40050959189297314,0.4105230000043736,0.38154414683474647,0.49695689842705437,1,2,0.5099694460186583,1,1,1,2,0.8136990569837508,2,0,0
116,0,0.3834979000150285,0.426147026028292,0.4109077796790426,0.4866514622451885,1,2,0.4335296434474003,1,2,2,1,1.0519610570081568,1,0,0
117,1,0.36953631148536914,0.38760088423060957,0.41622720259935264,0.5313492144361405,1,2,0.557853826059727,1,1,1,2,0.5571332957042614,1,0,0
118,0,0.379580542297147,0.37681614485006687,0.4535846220095749,0.4830098312089386,2,1,0.6069219130113197,2,1,2,1,0.7510575161613815,2,0,0
119,1,0.38674337444251883,0.423616017027619,0.4712522749430783,0.46296129806404607,2,1,0.6107584131932526,2,2,1,2,0.7350819931016304,1,1,0
120,0,0.39140145706082163,0.4369142060013897,0.4800349491591718,0.42040111879875974,1,2,0.736476043046423,2,1,2,1,0.7695836744896951,1,0,0
121,1,0.34341200701849184,0.41063048583176487,0.44225908350962295,0.42021706389660407,1,2,0.7832870106576593,2,2,1,2,0.6553297398240829,1,0,0
122,1,0.37505408428973647,0.37456251391114526,0.45846699965573284,0.4063013293804949,1,2,0.6990545713597385,2,2,1,2,0.5417149707282078,1,0,0
123,0,0.35906529167899737,0.3691823952973623,0.43837590689820893,0.36594508498169276,2,1,0.9288079245670815,1,2,1,2,0.6456943414414127,2,0,0
124,1,0.36566298631167415,0.429007645495903,0.4241941218373415,0.37909148874881293,1,2,0.4465275168149674,1,1,1,2,0.6899480440661137,1,0,0
125,1,0.3221427705946418,0.4568951465038602,0.43619524192930637,0.39523587260447235,2,1,0.7405394605666515,1,1,1,2,0.5539211948926095,2,0,0
126,0,0.31316822323750015,0.5065672877607093,0.4165292392370843,0.3740291532570539,2,1,0.6709903510381992,1,2,2,1,0.8338916866014188,2,0,0
127,1,0.31513229217552347,0.4866498078284174,0.4367798258110122,0.4158064043622461,1,2,0.663620509832981,1,1,2,1,0.7670270122034708,2,0,0
128,1,0.4188826628926456,0.47102933127146884,0.4280111514781435,0.42640736671666873,2,1,0.8390306260043872,1,1,1,2,0.5208801620319718,1,0,0
129,1,0.4412506647762362,0.4840541154107504,0.44378612022564795,0.3796200209656917,2,1,0.8517003280794597,1,1,1,2,0.7820484578514879,2,0,0
130,1,0.489459384491296,0.48393767721893255,0.4634066653379272,0.37067087690641465,1,2,0.6261221936329093,1,1,2,1,0.6412430851232784,2,0,0
131,0,0.45519263698399914,0.466665012489234,0.4372717968604709,0.3625108078363066,1,2,0.7233500954826013,2,1,2,1,1.0963654351544392,2,1,0
132,1,0.4743149696669427,0.45414062561021873,0.48684643549204776,0.33792612435969316,1,2,0.5351331625097373,2,2,1,2,1.0872784956773103,1,0,0
133,1,0.46743302754033045,0.4685781127122776,0.5282629073633109,0.2871883483747453,1,2,0.6999694731384807,2,2,1,2,0.8889590701983252,2,0,0
134,0,0.4871451453314216,0.4971047472773426,0.48450113378152704,0.2937061333516577,1,2,0.7079215245721571,2,1,1,2,0.6799166704076924,1,1,0
135,1,0.5156276921724743,0.4460541358836674,0.4715355599314073,0.307188287856588,1,2,0.534913778945338,1,1,1,2,0.8082033179343853,1,1,0
136,1,0.5098579431458359,0.44752478928394246,0.4580769765507142,0.31540696921657374,2,1,0.6462819759799459,1,1,1,2,0.41625137981100124,1,0,0
137,1,0.5005675200273387,0.42267228936724455,0.46191253994071063,0.33511194239710673,2,1,0.8017092028712796,2,2,2,1,1.0911906349720084,2,0,0
138,1,0.5008985044433919,0.4167325469602645,0.449885613856309,0.34522363518547855,1,2,0.6163801169786893,1,1,1,2,0.6583426475917804,1,0,0
139,0,0.5174951200478691,0.4092593760636478,0.4697869721860132,0.3442605451568195,1,2,0.7535858514493157,2,1,1,2,0.8122646259980684,2,1,0
140,1,0.48328199333796173,0.4172884218966132,0.48110446144844904,0.37334338938823136,2,1,0.8345561656569771,2,2,2,1,1.314311854337575,1,1,0
141,1,0.4744618289374305,0.398840989094841,0.47048104093904364,0.4076104922939056,1,2,0.6618847278004978,2,2,2,1,1.2902709718473488,1,0,0
142,1,0.4772329086613345,0.4017317730117851,0.44539720595279597,0.4068631446147992,1,2,0.5861247731954791,2,2,2,1,1.021001757177146,1,1,0
143,1,0.441758148606493,0.3557484535612261,0.4120806697933972,0.38428290810997323,2,1,0.6478719041078875,2,2,2,1,0.9663659082762024,1,0,0
144,1,0.45297725601907113,0.33564098161163525,0.4264802843465681,0.4366027702384089,2,1,0.5540128056127287,2,2,2,1,1.062206088558014,1,1,0
145,1,0.4765312584136089,0.36632602679420984,0.41521006614410116,0.4903096959751533,1,2,0.587312699022732,2,2,1,2,0.7615822014849982,1,0,0
146,1,0.44854681530539064,0.3403896531501198,0.4106811825346881,0.49324565722734187,1,2,0.6880989540404698,1,1,1,2,0.8657017004334193,2,0,0
147,1,0.43611463443215204,0.34854090963884554,0.4029319070934556,0.5040120700604538,2,1,1.0397906936159416,1,1,2,1,0.7200909839084488,2,1,0
148,1,0.46281165471542807,0.3378463161793297,0.3521682308965923,0.5240391738646998,1,2,0.5722855277053895,1,1,1,2,0.7231412592082052,2,1,0
149,1,0.4699625056468493,0.31285442022048926,0.39776558052487226,0.5069026591842394,1,2,0.6320841227498022,1,1,1,2,0.7103591531922575,2,0,0
